// Start Time: Unknown
// Update Rate: 100.0Hz
// Filter Profile: human (46.1)
// Firmware Version: 4.6.0
PacketCounter	Acc_X	Acc_Y	Acc_Z	Gyr_X	Gyr_Y	Gyr_Z	Mag_X	Mag_Y	Mag_Z	Mat[1][1]	Mat[2][1]	Mat[3][1]	Mat[1][2]	Mat[2][2]	Mat[3][2]	Mat[1][3]	Mat[2][3]	Mat[3][3]
19648	2.206660	5.955790	7.457860	-0.001936	-0.008023	-0.001325	-0.107770	-0.836971	-0.535301	0.524693	-0.818879	0.232667	0.578504	0.543491	0.608236	-0.624524	-0.184538	0.758891
19649	2.257460	5.976730	7.460870	0.001872	-0.000624	0.007659	-0.113354	-0.835505	-0.536244	0.524733	-0.818839	0.232718	0.578452	0.543550	0.608232	-0.624538	-0.184543	0.758878
19650	2.309860	5.964460	7.472980	0.002059	-0.003153	0.008578	-0.108527	-0.842653	-0.543295	0.524764	-0.818794	0.232805	0.578375	0.543620	0.608243	-0.624583	-0.184536	0.758843
19651	2.339420	5.981460	7.464710	0.002684	-0.002091	0.005000	-0.111243	-0.844241	-0.543018	0.524780	-0.818771	0.232851	0.578332	0.543656	0.608251	-0.624610	-0.184533	0.758822
19652	2.297140	5.973590	7.442110	0.002871	-0.006824	-0.003022	-0.109902	-0.837092	-0.543326	0.524717	-0.818807	0.232869	0.578373	0.543623	0.608242	-0.624625	-0.184469	0.758824
19653	2.230460	5.960090	7.468080	0.000686	-0.004526	0.000049	-0.110237	-0.844545	-0.543196	0.524689	-0.818815	0.232903	0.578369	0.543623	0.608247	-0.624653	-0.184436	0.758810
19654	2.290370	5.961010	7.460780	0.004992	-0.009550	-0.000269	-0.106184	-0.843841	-0.540030	0.524624	-0.818842	0.232955	0.578388	0.543608	0.608242	-0.624690	-0.184360	0.758797
19655	2.260550	5.977560	7.459270	0.001683	-0.008521	-0.001690	-0.111300	-0.836792	-0.550363	0.524561	-0.818867	0.233009	0.578386	0.543591	0.608259	-0.624745	-0.184299	0.758767
19656	2.261060	5.977750	7.458970	0.002558	-0.007355	-0.001232	-0.115253	-0.846946	-0.550836	0.524501	-0.818902	0.233021	0.578467	0.543569	0.608201	-0.624720	-0.184207	0.758810
19657	2.320940	5.978510	7.451780	-0.001938	-0.008023	-0.001322	-0.112324	-0.847360	-0.532648	0.524443	-0.818924	0.233074	0.578486	0.543562	0.608189	-0.624751	-0.184131	0.758803
19658	2.246810	5.951810	7.497180	-0.001064	-0.006857	-0.000865	-0.114205	-0.845326	-0.544227	0.524400	-0.818934	0.233137	0.578453	0.543560	0.608222	-0.624818	-0.184093	0.758757
19659	2.280910	5.980240	7.529340	0.003120	-0.006721	0.001014	-0.104981	-0.843304	-0.545508	0.524363	-0.818940	0.233194	0.578428	0.543563	0.608244	-0.624871	-0.184055	0.758723
19660	2.285950	5.948800	7.478450	0.004557	-0.004920	0.003718	-0.110120	-0.845923	-0.536096	0.524352	-0.818940	0.233223	0.578449	0.543579	0.608209	-0.624862	-0.184008	0.758742
19661	2.353470	5.962810	7.451760	0.004741	-0.009654	-0.004303	-0.112503	-0.844250	-0.535594	0.524266	-0.818981	0.233270	0.578442	0.543535	0.608255	-0.624940	-0.183955	0.758690
19662	2.285580	5.982900	7.468260	0.003361	-0.019249	-0.012316	-0.112464	-0.841785	-0.537148	0.524081	-0.819076	0.233352	0.578460	0.543434	0.608328	-0.625079	-0.183829	0.758606
19663	2.176560	5.961510	7.471760	0.000743	-0.012320	-0.005259	-0.112615	-0.848119	-0.536515	0.523974	-0.819127	0.233413	0.578483	0.543390	0.608346	-0.625147	-0.183732	0.758573
19664	2.262550	5.934480	7.425180	-0.002245	-0.006348	0.009410	-0.113153	-0.841844	-0.548614	0.523998	-0.819081	0.233522	0.578417	0.543473	0.608334	-0.625187	-0.183693	0.758550
19665	2.342730	5.972110	7.420120	-0.003372	-0.007618	0.004919	-0.107613	-0.840780	-0.540209	0.523979	-0.819068	0.233609	0.578413	0.543520	0.608297	-0.625208	-0.183612	0.758552
19666	2.299440	5.928640	7.466930	-0.009241	-0.007454	0.005244	-0.111168	-0.836931	-0.540841	0.523962	-0.819062	0.233671	0.578509	0.543578	0.608153	-0.625133	-0.183468	0.758649
19667	2.282020	5.968530	7.487400	-0.005742	-0.002791	0.007070	-0.109766	-0.852027	-0.542395	0.523985	-0.819028	0.233735	0.578508	0.543647	0.608093	-0.625114	-0.183414	0.758677
19668	2.322070	5.931570	7.478540	-0.000935	-0.001593	0.005369	-0.111317	-0.841111	-0.538717	0.524010	-0.819009	0.233747	0.578531	0.543685	0.608036	-0.625072	-0.183387	0.758719
19669	2.313400	5.951740	7.488590	-0.000125	-0.003059	0.002710	-0.116788	-0.842306	-0.540219	0.524007	-0.819000	0.233787	0.578518	0.543708	0.608029	-0.625087	-0.183361	0.758712
19670	2.300140	5.960650	7.458060	0.000871	-0.007055	0.000971	-0.112336	-0.840098	-0.542430	0.523980	-0.818995	0.233864	0.578490	0.543732	0.608033	-0.625136	-0.183309	0.758685
19671	2.258110	5.952520	7.435650	-0.001689	-0.007919	0.002717	-0.113024	-0.842878	-0.547599	0.523946	-0.818995	0.233941	0.578486	0.543757	0.608014	-0.625167	-0.183235	0.758677
19672	2.280140	5.956280	7.446790	-0.003560	-0.005089	0.004000	-0.109237	-0.835503	-0.539835	0.523941	-0.818977	0.234014	0.578529	0.543821	0.607917	-0.625132	-0.183129	0.758732
19673	2.325050	5.930430	7.478520	-0.010615	-0.006621	0.005660	-0.114272	-0.843281	-0.544952	0.523933	-0.818958	0.234099	0.578565	0.543887	0.607824	-0.625105	-0.183017	0.758781
19674	2.302830	5.959060	7.458500	-0.003812	-0.005193	-0.000036	-0.108762	-0.845442	-0.542487	0.523906	-0.818965	0.234135	0.578635	0.543909	0.607737	-0.625063	-0.182918	0.758839
19675	2.271490	5.940110	7.526470	-0.004369	-0.003623	0.006660	-0.115823	-0.850658	-0.535767	0.523922	-0.818935	0.234203	0.578628	0.543972	0.607688	-0.625057	-0.182865	0.758858
19676	2.287230	5.965650	7.488100	-0.000868	0.001039	0.008485	-0.111802	-0.840200	-0.546906	0.523995	-0.818907	0.234137	0.578618	0.543987	0.607684	-0.625004	-0.182948	0.758881
19677	2.266380	5.961380	7.477020	-0.001246	-0.002124	0.007159	-0.107171	-0.845763	-0.542253	0.524024	-0.818872	0.234197	0.578588	0.544048	0.607658	-0.625008	-0.182924	0.758883
19678	2.320370	5.983640	7.420340	-0.002811	-0.006984	0.007167	-0.110492	-0.843976	-0.540164	0.524029	-0.818852	0.234253	0.578664	0.544117	0.607523	-0.624933	-0.182806	0.758974
19679	2.284780	5.953160	7.447870	-0.008747	-0.009450	0.004380	-0.109779	-0.844798	-0.546035	0.523995	-0.818846	0.234351	0.578696	0.544168	0.607447	-0.624932	-0.182681	0.759005
19680	2.269100	5.959650	7.477570	-0.009489	-0.005352	0.010156	-0.110265	-0.843120	-0.537586	0.524026	-0.818813	0.234396	0.578780	0.544254	0.607290	-0.624828	-0.182573	0.759116
19681	2.300390	5.942250	7.479230	-0.013229	0.000308	0.012724	-0.115281	-0.840000	-0.540921	0.524102	-0.818743	0.234470	0.578796	0.544382	0.607160	-0.624750	-0.182503	0.759197
19682	2.336260	5.936180	7.521390	-0.008169	0.001608	0.015057	-0.116703	-0.840878	-0.543450	0.524212	-0.818656	0.234527	0.578785	0.544521	0.607046	-0.624667	-0.182480	0.759271
19683	2.315590	5.931330	7.510720	-0.005609	0.002472	0.013310	-0.112752	-0.843813	-0.550373	0.524305	-0.818580	0.234589	0.578751	0.544640	0.606972	-0.624621	-0.182470	0.759311
19684	2.325200	5.910390	7.500960	-0.003925	0.002170	0.011106	-0.105216	-0.844478	-0.545245	0.524401	-0.818494	0.234674	0.578753	0.544789	0.606836	-0.624539	-0.182407	0.759394
19685	2.295150	5.926370	7.500070	0.001760	0.004532	0.009858	-0.102349	-0.846271	-0.541041	0.524486	-0.818432	0.234699	0.578690	0.544867	0.606826	-0.624525	-0.182454	0.759394
19686	2.324320	5.943230	7.491960	0.001195	0.003898	0.007611	-0.110764	-0.848832	-0.545406	0.524546	-0.818432	0.234565	0.578834	0.544864	0.606691	-0.624342	-0.182463	0.759542
19687	2.319690	5.932140	7.451270	0.009625	0.004593	0.005535	-0.115568	-0.846268	-0.540679	0.524607	-0.818393	0.234563	0.578746	0.544891	0.606751	-0.624372	-0.182553	0.759496
19688	2.331800	5.956840	7.472240	0.003883	0.007822	0.003153	-0.112679	-0.842664	-0.542860	0.524687	-0.818371	0.234463	0.578758	0.544893	0.606738	-0.624294	-0.182650	0.759537
19689	2.281290	5.936180	7.469060	0.005061	0.001298	0.002333	-0.105445	-0.846986	-0.546821	0.524708	-0.818356	0.234466	0.578715	0.544902	0.606771	-0.624316	-0.182689	0.759510
19690	2.311500	5.920450	7.469700	0.010494	0.003556	-0.002952	-0.112369	-0.844477	-0.540513	0.524718	-0.818378	0.234369	0.578777	0.544857	0.606753	-0.624250	-0.182727	0.759554
19691	2.280740	5.937420	7.468240	0.005685	0.002360	-0.001248	-0.108825	-0.842160	-0.548790	0.524725	-0.818381	0.234342	0.578749	0.544835	0.606798	-0.624270	-0.182777	0.759526
19692	2.285260	5.949330	7.508310	0.008993	0.001328	0.000173	-0.113893	-0.829012	-0.538538	0.524746	-0.818374	0.234320	0.578772	0.544845	0.606768	-0.624231	-0.182781	0.759557
19693	2.301590	5.942730	7.478480	0.010872	0.006718	-0.001625	-0.105254	-0.842880	-0.547399	0.524778	-0.818371	0.234258	0.578715	0.544811	0.606853	-0.624257	-0.182895	0.759508
19694	2.301200	5.943570	7.477940	0.012184	0.005458	0.003791	-0.116087	-0.845425	-0.542836	0.524855	-0.818311	0.234294	0.578677	0.544896	0.606812	-0.624227	-0.182907	0.759530
19695	2.322030	5.948640	7.488380	0.015050	0.004646	-0.008691	-0.122280	-0.855365	-0.536741	0.524833	-0.818351	0.234205	0.578631	0.544797	0.606945	-0.624288	-0.183027	0.759451
19696	2.316830	5.938270	7.447280	0.008429	0.000694	-0.002072	-0.107697	-0.843155	-0.541887	0.524858	-0.818351	0.234151	0.578537	0.544751	0.607076	-0.624355	-0.183164	0.759363
19697	2.286160	5.955380	7.445670	0.010989	0.001557	-0.003819	-0.107491	-0.847709	-0.536698	0.524845	-0.818369	0.234115	0.578489	0.544699	0.607169	-0.624410	-0.183237	0.759300
19698	2.329930	5.931070	7.476490	0.011864	0.002722	-0.003362	-0.111609	-0.843587	-0.541614	0.524835	-0.818418	0.233968	0.578541	0.544595	0.607212	-0.624371	-0.183326	0.759310
19699	2.315780	5.940830	7.445570	0.006738	-0.001210	-0.008812	-0.108448	-0.844630	-0.540554	0.524776	-0.818469	0.233921	0.578546	0.544509	0.607284	-0.624415	-0.183354	0.759268
19700	2.298660	5.948900	7.474480	0.005299	-0.003010	-0.011515	-0.119396	-0.844631	-0.544677	0.524695	-0.818543	0.233841	0.578642	0.544405	0.607285	-0.624394	-0.183329	0.759291
19701	2.248080	5.928480	7.471120	0.002924	-0.006401	-0.008847	-0.112313	-0.841003	-0.541359	0.524604	-0.818604	0.233833	0.578672	0.544326	0.607328	-0.624443	-0.183294	0.759259
19702	2.260360	5.953190	7.492010	0.003554	-0.003133	-0.003484	-0.104680	-0.842666	-0.538138	0.524602	-0.818586	0.233903	0.578646	0.544367	0.607316	-0.624469	-0.183253	0.759247
19703	2.307530	5.929990	7.463360	0.007737	-0.002998	-0.001606	-0.111554	-0.842667	-0.543456	0.524574	-0.818600	0.233914	0.578607	0.544339	0.607379	-0.624529	-0.183271	0.759194
19704	2.315500	5.943280	7.443700	0.000801	-0.009688	-0.002141	-0.113379	-0.841153	-0.542018	0.524501	-0.818645	0.233923	0.578713	0.544311	0.607303	-0.624492	-0.183156	0.759252
19705	2.306640	5.963780	7.453550	0.001054	-0.003571	-0.007564	-0.114835	-0.846346	-0.542833	0.524435	-0.818693	0.233901	0.578748	0.544246	0.607328	-0.624515	-0.183134	0.759238
19706	2.282320	5.958280	7.502110	-0.004696	-0.008566	-0.009433	-0.114692	-0.848736	-0.541430	0.524353	-0.818735	0.233939	0.578832	0.544225	0.607267	-0.624506	-0.183011	0.759276
19707	2.298970	5.950850	7.472830	-0.002070	-0.005069	-0.008064	-0.109341	-0.845660	-0.543921	0.524275	-0.818789	0.233926	0.578889	0.544161	0.607270	-0.624519	-0.182959	0.759277
19708	2.282230	5.958270	7.502140	0.000875	0.001166	0.000456	-0.112035	-0.840185	-0.544331	0.524292	-0.818791	0.233879	0.578938	0.544156	0.607227	-0.624459	-0.182964	0.759326
19709	2.326260	5.933230	7.533500	0.003435	0.002029	-0.001291	-0.113419	-0.847616	-0.540687	0.524298	-0.818795	0.233853	0.578925	0.544138	0.607256	-0.624466	-0.183000	0.759311
19710	2.319620	5.955460	7.483700	0.005311	0.007418	-0.003090	-0.111067	-0.843591	-0.547683	0.524348	-0.818782	0.233786	0.578939	0.544138	0.607242	-0.624411	-0.183058	0.759343
19711	2.291630	5.905800	7.500760	0.009436	0.007129	0.004615	-0.112677	-0.844412	-0.545223	0.524419	-0.818744	0.233757	0.578858	0.544157	0.607303	-0.624426	-0.183169	0.759303
19712	2.313890	5.945390	7.442520	0.014435	0.014017	0.003316	-0.109056	-0.850006	-0.546106	0.524543	-0.818679	0.233708	0.578821	0.544222	0.607280	-0.624356	-0.183270	0.759337
19713	2.296660	5.953650	7.471310	0.013187	0.011897	0.010478	-0.107802	-0.842750	-0.548888	0.524678	-0.818600	0.233679	0.578686	0.544283	0.607354	-0.624368	-0.183439	0.759286
19714	2.354290	5.988350	7.454500	0.013995	0.010428	0.007821	-0.110837	-0.840754	-0.547738	0.524773	-0.818556	0.233623	0.578709	0.544332	0.607287	-0.624267	-0.183488	0.759357
19715	2.312570	5.947870	7.440950	0.007990	0.003117	-0.007027	-0.107222	-0.847769	-0.534667	0.524751	-0.818589	0.233554	0.578699	0.544260	0.607362	-0.624294	-0.183556	0.759318
19716	2.311990	5.948490	7.440630	0.003993	0.000453	-0.007984	-0.115552	-0.845582	-0.543386	0.524696	-0.818653	0.233455	0.578806	0.544167	0.607343	-0.624242	-0.183545	0.759364
19717	2.346490	5.944140	7.481940	0.004304	0.000982	-0.009774	-0.116359	-0.841956	-0.542449	0.524645	-0.818706	0.233386	0.578835	0.544078	0.607395	-0.624258	-0.183575	0.759343
19718	2.272880	5.952800	7.458380	0.001367	-0.003044	-0.009353	-0.109935	-0.841030	-0.543825	0.524616	-0.818709	0.233438	0.578824	0.544088	0.607397	-0.624292	-0.183530	0.759326
19719	2.264950	5.940180	7.477500	0.002871	0.001392	-0.003535	-0.109020	-0.845624	-0.541448	0.524604	-0.818726	0.233405	0.578828	0.544054	0.607424	-0.624299	-0.183556	0.759314
19720	2.286040	5.944530	7.488470	0.004872	0.003830	0.001414	-0.114442	-0.844855	-0.541479	0.524629	-0.818720	0.233372	0.578875	0.544066	0.607368	-0.624233	-0.183550	0.759369
19721	2.285750	5.944870	7.488290	0.003746	0.002558	-0.003079	-0.109381	-0.837266	-0.539959	0.524627	-0.818732	0.233332	0.578872	0.544033	0.607400	-0.624238	-0.183590	0.759356
19722	2.294530	5.924760	7.478180	0.001252	0.004330	0.001781	-0.115749	-0.841848	-0.543388	0.524688	-0.818691	0.233338	0.578866	0.544092	0.607354	-0.624193	-0.183600	0.759391
19723	2.314170	5.962110	7.480100	0.002127	0.005496	0.002237	-0.110424	-0.835084	-0.537610	0.524735	-0.818670	0.233309	0.578844	0.544106	0.607362	-0.624173	-0.183655	0.759394
19724	2.331930	5.921650	7.460000	0.001811	0.002754	-0.004913	-0.117081	-0.846146	-0.542224	0.524768	-0.818641	0.233335	0.578832	0.544151	0.607333	-0.624157	-0.183647	0.759409
19725	2.262990	5.941610	7.476970	0.001680	-0.002515	-0.011142	-0.113975	-0.841728	-0.542915	0.524687	-0.818707	0.233285	0.578884	0.544057	0.607368	-0.624177	-0.183633	0.759396
19726	2.283760	5.946080	7.487940	0.004369	0.003617	-0.006658	-0.113479	-0.849138	-0.540156	0.524718	-0.818687	0.233287	0.578844	0.544074	0.607391	-0.624188	-0.183672	0.759377
19727	2.283190	5.946690	7.487630	0.009114	0.004390	-0.002531	-0.108450	-0.833871	-0.543947	0.524730	-0.818693	0.233239	0.578803	0.544037	0.607463	-0.624216	-0.183755	0.759335
19728	2.297890	5.905230	7.526900	0.006304	0.003421	-0.004822	-0.104905	-0.840984	-0.540425	0.524733	-0.818702	0.233201	0.578842	0.544023	0.607438	-0.624177	-0.183756	0.759366
19729	2.281950	5.948090	7.486890	0.011551	0.010416	-0.002083	-0.114347	-0.842524	-0.542920	0.524786	-0.818694	0.233109	0.578784	0.543985	0.607527	-0.624187	-0.183901	0.759323
19730	2.281240	5.948830	7.486520	0.007806	0.007858	0.000995	-0.115790	-0.841624	-0.545761	0.524838	-0.818679	0.233043	0.578816	0.543993	0.607489	-0.624113	-0.183945	0.759373
19731	2.318670	5.946140	7.468010	0.010364	0.008721	-0.000749	-0.114200	-0.836491	-0.544318	0.524888	-0.818668	0.232972	0.578759	0.543969	0.607565	-0.624124	-0.184069	0.759334
19732	2.292260	5.974670	7.506890	0.009988	0.005556	-0.002072	-0.111922	-0.839682	-0.544811	0.524970	-0.818581	0.233089	0.578666	0.544103	0.607534	-0.624141	-0.184057	0.759323
19733	2.274740	5.939730	7.444770	0.011110	0.004615	-0.006518	-0.105058	-0.843743	-0.535794	0.524961	-0.818608	0.233017	0.578634	0.544031	0.607629	-0.624178	-0.184150	0.759270
19734	2.278670	5.952140	7.484670	0.010235	0.003449	-0.006974	-0.108404	-0.844366	-0.536026	0.524924	-0.818667	0.232892	0.578718	0.543930	0.607639	-0.624131	-0.184185	0.759300
19735	2.287090	5.932590	7.474240	0.008116	0.008388	-0.000793	-0.109214	-0.838863	-0.539072	0.524971	-0.818656	0.232825	0.578676	0.543910	0.607697	-0.624131	-0.184293	0.759274
19736	2.307700	5.937360	7.485050	0.009800	0.008084	-0.002992	-0.112535	-0.827354	-0.542109	0.524999	-0.818686	0.232657	0.578711	0.543821	0.607744	-0.624075	-0.184424	0.759288
19737	2.306780	5.938400	7.484500	0.013979	0.006006	-0.010047	-0.114641	-0.840612	-0.547452	0.524978	-0.818730	0.232551	0.578682	0.543714	0.607868	-0.624120	-0.184544	0.759221
19738	2.305850	5.939650	7.483800	0.012729	0.001674	-0.011826	-0.116620	-0.843972	-0.547051	0.524987	-0.818679	0.232708	0.578629	0.543823	0.607820	-0.624161	-0.184446	0.759212
19739	2.266980	5.944260	7.501190	0.014164	0.003479	-0.009122	-0.109566	-0.841839	-0.543761	0.524955	-0.818722	0.232629	0.578593	0.543726	0.607941	-0.624221	-0.184544	0.759139
19740	2.244950	5.941430	7.489270	0.014414	0.003588	-0.005086	-0.106906	-0.843083	-0.544037	0.524975	-0.818695	0.232682	0.578550	0.543769	0.607943	-0.624245	-0.184537	0.759121
19741	2.303720	5.943420	7.481460	0.016098	0.003284	-0.007284	-0.105277	-0.842424	-0.540695	0.524952	-0.818727	0.232617	0.578492	0.543684	0.608074	-0.624317	-0.184642	0.759036
19742	2.289300	5.953410	7.450310	0.011106	0.004615	-0.006511	-0.108565	-0.840895	-0.544715	0.524876	-0.818818	0.232468	0.578667	0.543557	0.608022	-0.624219	-0.184615	0.759123
19743	2.281090	5.941550	7.468960	0.012665	0.001255	-0.005996	-0.115378	-0.841740	-0.541877	0.524848	-0.818848	0.232426	0.578626	0.543488	0.608122	-0.624280	-0.184684	0.759056
19744	2.250190	5.958740	7.467190	0.009046	0.001754	-0.005634	-0.108239	-0.841358	-0.540955	0.524856	-0.818831	0.232468	0.578619	0.543524	0.608096	-0.624280	-0.184653	0.759064
19745	2.266470	5.952040	7.437450	0.008235	0.003225	-0.002979	-0.114835	-0.844386	-0.542003	0.524858	-0.818841	0.232430	0.578590	0.543489	0.608155	-0.624305	-0.184713	0.759028
19746	2.287520	5.956720	7.448220	0.006176	0.000364	-0.002103	-0.114914	-0.844970	-0.542956	0.524868	-0.818832	0.232438	0.578589	0.543504	0.608143	-0.624298	-0.184709	0.759035
19747	2.308590	5.961380	7.458980	0.005864	-0.002386	-0.009248	-0.108967	-0.848071	-0.541414	0.524799	-0.818886	0.232406	0.578608	0.543423	0.608198	-0.624339	-0.184710	0.759001
19748	2.257940	5.940970	7.455570	0.005864	-0.002386	-0.009248	-0.110037	-0.841058	-0.542594	0.524738	-0.818938	0.232359	0.578653	0.543347	0.608223	-0.624349	-0.184702	0.758995
19749	2.249990	5.928920	7.474300	0.012352	0.000729	-0.004205	-0.111037	-0.831267	-0.548689	0.524717	-0.818959	0.232334	0.578605	0.543294	0.608316	-0.624411	-0.184764	0.758929
19750	2.270920	5.934200	7.484630	0.017216	0.004564	-0.002787	-0.112298	-0.848218	-0.533776	0.524746	-0.818901	0.232473	0.578578	0.543416	0.608232	-0.624411	-0.184664	0.758953
19751	2.282640	5.959670	7.505080	0.009106	0.004392	-0.002521	-0.114691	-0.847673	-0.527649	0.524757	-0.818905	0.232432	0.578542	0.543385	0.608294	-0.624435	-0.184735	0.758916
19752	2.285300	5.961980	7.444690	0.016592	0.003509	0.000793	-0.113364	-0.834804	-0.539723	0.524858	-0.818909	0.232190	0.578321	0.543231	0.608642	-0.624555	-0.185170	0.758712
19753	2.246950	5.966330	7.462100	0.011102	0.006839	0.002427	-0.113250	-0.842909	-0.541196	0.524914	-0.818882	0.232158	0.578245	0.543235	0.608710	-0.624579	-0.185276	0.758666
19754	2.298280	5.955160	7.473790	0.012038	-0.002025	-0.011345	-0.111280	-0.840363	-0.541368	0.524899	-0.818872	0.232227	0.578179	0.543254	0.608756	-0.624651	-0.185267	0.758608
19755	2.246130	5.968390	7.460700	0.011415	-0.003079	-0.007766	-0.108273	-0.840620	-0.539254	0.524834	-0.818919	0.232209	0.578154	0.543175	0.608851	-0.624729	-0.185293	0.758538
19756	2.270470	5.974600	7.411490	0.004431	-0.012416	-0.011415	-0.107513	-0.841678	-0.544797	0.524688	-0.819001	0.232249	0.578267	0.543106	0.608805	-0.624748	-0.185130	0.758562
19757	2.239000	5.956630	7.478980	-0.002429	-0.016473	-0.008845	-0.115564	-0.849672	-0.546385	0.524533	-0.819079	0.232327	0.578335	0.543044	0.608796	-0.624815	-0.184970	0.758546
19758	2.242760	5.957850	7.419100	-0.002616	-0.011720	-0.000837	-0.110983	-0.843716	-0.545454	0.524439	-0.819093	0.232485	0.578440	0.543108	0.608639	-0.624797	-0.184716	0.758623
19759	2.248160	5.968900	7.459680	-0.009726	-0.005447	0.006101	-0.110676	-0.840473	-0.537298	0.524439	-0.819069	0.232571	0.578475	0.543182	0.608539	-0.624764	-0.184605	0.758677
19760	2.295990	5.944490	7.431960	-0.006297	-0.003418	0.004816	-0.115092	-0.845799	-0.537964	0.524447	-0.819043	0.232646	0.578552	0.543267	0.608390	-0.624686	-0.184470	0.758774
19761	2.314820	5.946650	7.503160	-0.008232	-0.003226	0.002979	-0.113770	-0.836190	-0.543636	0.524442	-0.819031	0.232697	0.578595	0.543314	0.608307	-0.624650	-0.184385	0.758824
19762	2.251400	5.933760	7.470040	-0.003801	-0.002970	0.008898	-0.113644	-0.837939	-0.538400	0.524545	-0.818915	0.232873	0.578499	0.543509	0.608224	-0.624653	-0.184324	0.758837
19763	2.308410	5.932830	7.522840	0.000565	0.002866	0.011178	-0.106811	-0.848451	-0.547713	0.524626	-0.818847	0.232929	0.578443	0.543607	0.608189	-0.624636	-0.184336	0.758848
19764	2.313170	5.900810	7.472470	0.002060	0.005086	0.008056	-0.107548	-0.838824	-0.543118	0.524672	-0.818815	0.232939	0.578512	0.543676	0.608062	-0.624534	-0.184275	0.758947
19765	2.299660	5.953270	7.532620	0.007861	0.002284	0.004634	-0.114532	-0.843340	-0.532954	0.524712	-0.818784	0.232959	0.578446	0.543708	0.608097	-0.624562	-0.184321	0.758912
19766	2.302570	5.955240	7.472410	0.011602	0.004839	0.001559	-0.111122	-0.838630	-0.540861	0.524767	-0.818772	0.232877	0.578408	0.543685	0.608153	-0.624551	-0.184440	0.758892
19767	2.273460	5.938940	7.480100	0.006736	0.001004	0.000144	-0.118059	-0.840447	-0.542549	0.524772	-0.818768	0.232879	0.578373	0.543681	0.608190	-0.624579	-0.184470	0.758862
19768	2.264170	5.960030	7.489520	0.013847	0.005174	0.001608	-0.106850	-0.845174	-0.543883	0.524881	-0.818668	0.232987	0.578219	0.543815	0.608217	-0.624629	-0.184524	0.758807
19769	2.294180	5.944960	7.489900	0.018149	0.008369	0.000780	-0.108121	-0.841904	-0.553466	0.524937	-0.818646	0.232939	0.578109	0.543796	0.608339	-0.624685	-0.184676	0.758725
19770	2.287600	5.967670	7.439420	0.011039	0.004198	-0.000684	-0.114227	-0.839377	-0.539518	0.524832	-0.818710	0.232950	0.578346	0.543780	0.608128	-0.624554	-0.184439	0.758891
19771	2.256880	5.917070	7.516060	0.010664	0.001032	-0.002003	-0.106958	-0.838117	-0.535120	0.524825	-0.818717	0.232941	0.578299	0.543753	0.608196	-0.624603	-0.184487	0.758839
19772	2.279470	5.956570	7.457480	0.013845	0.005174	0.001611	-0.112219	-0.842680	-0.542410	0.524885	-0.818698	0.232873	0.578252	0.543743	0.608251	-0.624597	-0.184602	0.758816
19773	2.288410	5.937290	7.446730	0.016277	0.002982	0.002587	-0.112925	-0.843387	-0.546232	0.524916	-0.818676	0.232877	0.578146	0.543743	0.608351	-0.624668	-0.184696	0.758734
19774	2.299040	5.996080	7.457570	0.014842	0.001174	-0.000114	-0.117919	-0.838754	-0.543648	0.524926	-0.818647	0.232959	0.578111	0.543802	0.608332	-0.624692	-0.184653	0.758724
19775	2.262400	5.967080	7.484440	0.006735	0.001003	0.000147	-0.108192	-0.845110	-0.542652	0.524931	-0.818642	0.232964	0.578078	0.543800	0.608364	-0.624718	-0.184678	0.758697
19776	2.279060	5.960040	7.454830	0.006797	0.003645	0.003255	-0.113070	-0.841965	-0.545450	0.524993	-0.818577	0.233053	0.578043	0.543913	0.608297	-0.624698	-0.184637	0.758724
19777	2.279060	5.960590	7.454390	0.008606	-0.001830	-0.001122	-0.115569	-0.840150	-0.544219	0.524973	-0.818584	0.233073	0.578006	0.543898	0.608345	-0.624750	-0.184648	0.758678
19778	2.283800	5.972590	7.494440	0.002495	0.000450	0.004084	-0.115911	-0.843394	-0.541235	0.525039	-0.818486	0.233270	0.577960	0.544090	0.608217	-0.624737	-0.184517	0.758721
19779	2.264030	5.935670	7.492360	0.008979	0.001337	0.000197	-0.115545	-0.839820	-0.538510	0.525046	-0.818479	0.233276	0.577913	0.544087	0.608265	-0.624774	-0.184554	0.758681
19780	2.292970	5.953280	7.483660	0.010102	0.002621	0.004688	-0.118832	-0.839638	-0.541603	0.525183	-0.818366	0.233364	0.577719	0.544220	0.608331	-0.624839	-0.184666	0.758600
19781	2.250390	5.945820	7.460740	0.012284	0.000313	0.001630	-0.109846	-0.845959	-0.537792	0.525192	-0.818354	0.233388	0.577642	0.544223	0.608400	-0.624902	-0.184713	0.758537
19782	2.308410	5.980400	7.443800	0.006921	-0.001523	0.001076	-0.115043	-0.836482	-0.541956	0.525241	-0.818312	0.233424	0.577558	0.544269	0.608439	-0.624938	-0.184761	0.758495
19783	2.308640	5.981180	7.443110	0.013219	-0.006330	-0.003201	-0.111189	-0.842633	-0.540385	0.525181	-0.818338	0.233469	0.577501	0.544231	0.608527	-0.625042	-0.184759	0.758411
19784	2.251040	5.948140	7.458700	0.008792	-0.004356	-0.000192	-0.106425	-0.847339	-0.538973	0.525172	-0.818311	0.233581	0.577474	0.544299	0.608492	-0.625074	-0.184676	0.758405
19785	2.286160	5.944210	7.499740	0.008417	0.000695	-0.002047	-0.112850	-0.847970	-0.540061	0.525163	-0.818318	0.233580	0.577441	0.544280	0.608540	-0.625112	-0.184704	0.758366
19786	2.293670	5.957680	7.479940	0.008105	0.000170	-0.000257	-0.118729	-0.837844	-0.540496	0.525085	-0.818423	0.233389	0.577578	0.544107	0.608564	-0.625051	-0.184748	0.758406
19787	2.318060	5.963710	7.430760	0.009913	-0.005306	-0.004632	-0.111251	-0.841683	-0.542802	0.525023	-0.818455	0.233415	0.577551	0.544063	0.608630	-0.625129	-0.184735	0.758344
19788	2.280180	5.967910	7.448190	0.008167	-0.007641	-0.005542	-0.101103	-0.841660	-0.540807	0.525001	-0.818422	0.233580	0.577486	0.544147	0.608617	-0.625207	-0.184635	0.758305
19789	2.281930	5.935380	7.457000	0.005922	-0.007976	-0.005591	-0.110953	-0.842524	-0.535294	0.524916	-0.818464	0.233623	0.577488	0.544103	0.608654	-0.625276	-0.184578	0.758261
19790	2.251790	5.952180	7.455250	0.006484	-0.007333	-0.003346	-0.104383	-0.840491	-0.537888	0.524718	-0.818640	0.233452	0.577772	0.543881	0.608583	-0.625180	-0.184453	0.758371
19791	2.281030	5.969550	7.446610	0.002306	-0.007477	-0.005234	-0.112914	-0.848422	-0.543817	0.524639	-0.818680	0.233491	0.577797	0.543845	0.608591	-0.625224	-0.184381	0.758353
19792	2.266240	5.944110	7.484990	0.000811	-0.009694	-0.002110	-0.117592	-0.849370	-0.547338	0.524468	-0.818804	0.233437	0.578032	0.543720	0.608479	-0.625150	-0.184194	0.758459
19793	2.272870	5.990280	7.455950	0.002556	-0.007359	-0.001199	-0.112497	-0.846922	-0.539202	0.524413	-0.818823	0.233498	0.578036	0.543717	0.608479	-0.625193	-0.184124	0.758441
19794	2.296320	5.961210	7.476310	-0.003116	-0.009720	0.000037	-0.120174	-0.838252	-0.540390	0.524362	-0.818826	0.233600	0.578060	0.543755	0.608422	-0.625213	-0.183999	0.758455
19795	2.304560	5.973880	7.456900	-0.000498	-0.006218	0.001403	-0.115091	-0.845943	-0.545640	0.524329	-0.818827	0.233668	0.578069	0.543778	0.608393	-0.625232	-0.183922	0.758457
19796	2.254860	5.952710	7.453900	-0.001371	-0.007385	0.000948	-0.105442	-0.845774	-0.535783	0.524385	-0.818721	0.233917	0.577948	0.543978	0.608329	-0.625297	-0.183807	0.758432
19797	2.269200	5.943860	7.484290	-0.001307	-0.004742	0.004054	-0.113311	-0.836780	-0.549098	0.524376	-0.818705	0.233992	0.577947	0.544026	0.608287	-0.625305	-0.183736	0.758442
19798	2.315340	5.953140	7.446770	-0.000123	-0.003050	0.002719	-0.116791	-0.843396	-0.541240	0.524288	-0.818758	0.234004	0.578154	0.544016	0.608100	-0.625188	-0.183529	0.758589
19799	2.294620	5.948830	7.435600	-0.003428	-0.010245	0.001829	-0.117555	-0.842458	-0.535819	0.524232	-0.818764	0.234108	0.578179	0.544049	0.608045	-0.625212	-0.183401	0.758600
19800	2.277220	5.989280	7.455430	-0.001618	-0.005267	0.005844	-0.120423	-0.835964	-0.537251	0.524330	-0.818669	0.234221	0.578028	0.544178	0.608074	-0.625269	-0.183445	0.758543
19801	2.296220	5.948070	7.435720	-0.006915	-0.004460	0.008398	-0.110191	-0.837484	-0.540288	0.524348	-0.818628	0.234321	0.578040	0.544272	0.607979	-0.625243	-0.183346	0.758588
19802	2.289230	5.934830	7.455200	-0.000059	-0.000407	0.005825	-0.117744	-0.838750	-0.535777	0.524457	-0.818520	0.234458	0.577947	0.544444	0.607913	-0.625238	-0.183320	0.758598
19803	2.301860	5.959080	7.476300	-0.002303	-0.000741	0.005777	-0.111978	-0.843437	-0.536177	0.524483	-0.818487	0.234514	0.577943	0.544508	0.607859	-0.625219	-0.183276	0.758624
19804	2.294760	5.946010	7.495690	-0.001308	-0.004742	0.004055	-0.103356	-0.846421	-0.538238	0.524535	-0.818456	0.234508	0.577887	0.544534	0.607889	-0.625228	-0.183340	0.758602
19805	2.307520	5.970420	7.516630	0.001248	-0.003883	0.002313	-0.120573	-0.846364	-0.546167	0.524521	-0.818447	0.234566	0.577879	0.544563	0.607871	-0.625246	-0.183290	0.758598
19806	2.295670	5.946110	7.495330	0.005801	-0.000572	0.005515	-0.114863	-0.843627	-0.548891	0.524479	-0.818492	0.234505	0.577983	0.544510	0.607820	-0.625186	-0.183249	0.758658
19807	2.333880	5.943030	7.476840	0.005925	0.002478	0.002796	-0.102912	-0.842159	-0.539999	0.524508	-0.818470	0.234518	0.577944	0.544534	0.607835	-0.625198	-0.183277	0.758642
19808	2.282270	5.955510	7.464220	0.004300	-0.005025	-0.000289	-0.109864	-0.843356	-0.541038	0.524343	-0.818582	0.234495	0.578221	0.544449	0.607648	-0.625080	-0.183026	0.758799
19809	2.282530	5.955890	7.463840	0.006985	0.001120	0.004180	-0.114108	-0.834353	-0.543671	0.524372	-0.818555	0.234525	0.578170	0.544482	0.607666	-0.625103	-0.183047	0.758775
19810	2.291750	5.935990	7.453500	0.006358	-0.002166	-0.001170	-0.112854	-0.843023	-0.535312	0.524320	-0.818574	0.234576	0.578270	0.544503	0.607553	-0.625054	-0.182904	0.758851
19811	2.328360	5.966070	7.425640	0.002807	0.000977	0.002293	-0.110998	-0.844328	-0.535286	0.524336	-0.818557	0.234596	0.578257	0.544529	0.607543	-0.625053	-0.182900	0.758852
19812	2.275230	5.943860	7.482460	-0.001682	0.000309	0.002196	-0.115465	-0.838495	-0.545941	0.524319	-0.818625	0.234400	0.578354	0.544396	0.607569	-0.624977	-0.182994	0.758892
19813	2.261550	5.952530	7.452020	0.001371	-0.000833	-0.000406	-0.107500	-0.847146	-0.538425	0.524309	-0.818627	0.234416	0.578363	0.544401	0.607555	-0.624977	-0.182969	0.758898
19814	2.296750	5.947990	7.493510	0.001125	0.001286	0.004490	-0.114262	-0.840579	-0.545561	0.524279	-0.818654	0.234386	0.578505	0.544394	0.607426	-0.624871	-0.182867	0.759010
19815	2.275620	5.943990	7.482240	0.005303	0.001429	0.006377	-0.122853	-0.844355	-0.534117	0.524322	-0.818615	0.234425	0.578456	0.544447	0.607426	-0.624880	-0.182882	0.758999
19816	2.312430	5.973740	7.454580	-0.001993	-0.000215	0.003987	-0.118749	-0.833384	-0.548051	0.524438	-0.818513	0.234524	0.578315	0.544584	0.607437	-0.624913	-0.182934	0.758959
19817	2.297380	5.948040	7.493270	0.001371	-0.000833	-0.000406	-0.115978	-0.842651	-0.534936	0.524428	-0.818515	0.234540	0.578325	0.544590	0.607423	-0.624913	-0.182909	0.758965
19818	2.343270	5.957210	7.455860	-0.005421	-0.002241	0.005274	-0.115982	-0.840471	-0.532884	0.524528	-0.818393	0.234741	0.578251	0.544807	0.607298	-0.624898	-0.182805	0.759003
19819	2.285690	5.922950	7.472540	-0.003992	-0.002668	-0.000958	-0.118707	-0.840230	-0.538584	0.524503	-0.818401	0.234769	0.578296	0.544818	0.607245	-0.624876	-0.182735	0.759037
19820	2.298070	5.947330	7.493630	0.000497	-0.002001	-0.000861	-0.117904	-0.839525	-0.548891	0.524577	-0.818359	0.234749	0.578187	0.544839	0.607331	-0.624915	-0.182863	0.758974
19821	2.307210	5.926980	7.483660	0.000000	0.000000	0.000000	-0.115761	-0.839031	-0.541087	0.524577	-0.818359	0.234749	0.578187	0.544839	0.607331	-0.624915	-0.182863	0.758974
19822	2.298100	5.947520	7.493460	0.004489	0.000668	0.000097	-0.111733	-0.843884	-0.547221	0.524612	-0.818288	0.234920	0.578161	0.544989	0.607220	-0.624910	-0.182733	0.759010
19823	2.264670	5.919060	7.461170	-0.000124	-0.003050	0.002720	-0.113178	-0.838459	-0.541459	0.524606	-0.818276	0.234974	0.578162	0.545025	0.607188	-0.624914	-0.182681	0.759019
19824	2.327470	5.964710	7.484890	0.004113	-0.002501	-0.001218	-0.108444	-0.850508	-0.537530	0.524513	-0.818329	0.234999	0.578328	0.545008	0.607045	-0.624838	-0.182496	0.759126
19825	2.277230	5.943960	7.481780	0.002179	-0.002310	-0.003057	-0.115256	-0.848028	-0.543258	0.524478	-0.818347	0.235013	0.578346	0.544991	0.607042	-0.624851	-0.182461	0.759124
19826	2.284970	5.956820	7.462350	-0.000622	-0.001049	0.003581	-0.104826	-0.842892	-0.543873	0.524389	-0.818462	0.234810	0.578537	0.544817	0.607016	-0.624749	-0.182466	0.759207
19827	2.350600	5.936000	7.505040	0.001682	-0.000309	-0.002197	-0.108739	-0.840537	-0.543242	0.524371	-0.818473	0.234812	0.578555	0.544808	0.607008	-0.624747	-0.182446	0.759213
19828	2.315440	5.940830	7.463310	0.002113	-0.004954	-0.006163	-0.111020	-0.838212	-0.537759	0.524133	-0.818667	0.234667	0.578966	0.544606	0.606797	-0.624566	-0.182178	0.759426
19829	2.256080	5.940370	7.470190	-0.000131	-0.005288	-0.006211	-0.115677	-0.836941	-0.543675	0.524061	-0.818709	0.234681	0.579019	0.544566	0.606783	-0.624578	-0.182107	0.759434
19830	2.248650	5.927700	7.489370	0.002994	-0.001548	0.003223	-0.114383	-0.848986	-0.541081	0.524075	-0.818685	0.234734	0.579060	0.544631	0.606685	-0.624527	-0.182023	0.759495
19831	2.302120	5.949970	7.432370	0.002562	0.003097	0.007189	-0.116941	-0.847260	-0.545883	0.524133	-0.818639	0.234766	0.579026	0.544696	0.606658	-0.624510	-0.182034	0.759507
19832	2.329920	5.932520	7.493230	-0.000058	-0.000405	0.005826	-0.114185	-0.846111	-0.542673	0.524125	-0.818648	0.234750	0.579071	0.544691	0.606621	-0.624475	-0.182009	0.759541
19833	2.324070	5.953840	7.443480	-0.001992	-0.000215	0.003987	-0.123698	-0.836385	-0.538823	0.524144	-0.818626	0.234787	0.579082	0.544738	0.606568	-0.624449	-0.181968	0.759573
19834	2.278630	5.944260	7.481110	-0.001682	0.000309	0.002197	-0.115165	-0.845390	-0.541021	0.524242	-0.818538	0.234875	0.578974	0.544860	0.606562	-0.624468	-0.181999	0.759550
19835	2.286450	5.956860	7.461860	-0.001429	0.000428	0.006232	-0.115204	-0.838430	-0.544507	0.524278	-0.818502	0.234921	0.578969	0.544925	0.606508	-0.624442	-0.181967	0.759579
19836	2.326310	5.919900	7.453270	-0.003674	0.000094	0.006184	-0.109784	-0.836025	-0.540555	0.524306	-0.818469	0.234970	0.579026	0.545004	0.606383	-0.624365	-0.181877	0.759664
19837	2.347990	5.923630	7.464580	-0.004303	-0.003192	0.000834	-0.122990	-0.840359	-0.547840	0.524288	-0.818469	0.235011	0.579068	0.545030	0.606319	-0.624342	-0.181799	0.759702
19838	2.308810	5.959730	7.473650	-0.009666	-0.005026	0.000283	-0.121854	-0.840694	-0.541568	0.524292	-0.818419	0.235176	0.579143	0.545177	0.606115	-0.624269	-0.181581	0.759814
19839	2.280260	5.942400	7.482090	-0.000125	-0.003050	0.002721	-0.116373	-0.839409	-0.544653	0.524286	-0.818408	0.235228	0.579149	0.545212	0.606078	-0.624268	-0.181526	0.759827
19840	2.332320	5.929980	7.494490	-0.004734	0.001452	0.004801	-0.113183	-0.838746	-0.547986	0.524395	-0.818299	0.235364	0.579074	0.545390	0.605990	-0.624246	-0.181485	0.759855
19841	2.294510	5.933180	7.512790	0.001689	0.001928	0.006736	-0.115854	-0.839221	-0.536261	0.524443	-0.818257	0.235403	0.579047	0.545454	0.605957	-0.624231	-0.181481	0.759869
19842	2.311170	5.925890	7.483310	0.007984	0.005335	0.001914	-0.114069	-0.841783	-0.540114	0.524473	-0.818246	0.235375	0.579081	0.545470	0.605911	-0.624174	-0.181483	0.759915
19843	2.309540	5.959540	7.473580	0.005926	0.002476	0.002796	-0.113590	-0.842369	-0.548589	0.524502	-0.818225	0.235386	0.579048	0.545494	0.605920	-0.624180	-0.181506	0.759904
19844	2.301980	5.947020	7.492680	0.004244	0.002786	0.004993	-0.120020	-0.837078	-0.539670	0.524489	-0.818237	0.235372	0.579151	0.545503	0.605815	-0.624096	-0.181427	0.759992
19845	2.324730	5.918150	7.513060	0.003495	0.004668	0.001818	-0.116394	-0.842248	-0.546158	0.524525	-0.818217	0.235361	0.579140	0.545524	0.605806	-0.624076	-0.181454	0.760003
19846	2.318380	5.939770	7.463240	0.000377	0.003168	0.001315	-0.109421	-0.840442	-0.540107	0.524604	-0.818147	0.235428	0.579096	0.545631	0.605752	-0.624051	-0.181444	0.760025
19847	2.296880	5.935810	7.452070	0.003992	0.002667	0.000958	-0.114505	-0.845772	-0.540823	0.524623	-0.818135	0.235427	0.579086	0.545644	0.605749	-0.624044	-0.181457	0.760028
19848	2.301460	5.947560	7.492410	-0.001371	0.000834	0.000406	-0.112974	-0.841076	-0.543497	0.524538	-0.818239	0.235255	0.579297	0.545503	0.605675	-0.623919	-0.181417	0.760140
19849	2.317920	5.940040	7.463170	0.003872	0.007836	0.003134	-0.114100	-0.836554	-0.541315	0.524602	-0.818206	0.235227	0.579277	0.545533	0.605666	-0.623884	-0.181472	0.760156
19850	2.317790	5.940080	7.463170	-0.000246	0.002120	0.004897	-0.107082	-0.836823	-0.540132	0.524609	-0.818204	0.235220	0.579386	0.545566	0.605532	-0.623777	-0.181384	0.760265
19851	2.308680	5.960340	7.473200	-0.000994	0.004002	0.001722	-0.108513	-0.840216	-0.544266	0.524640	-0.818186	0.235212	0.579405	0.545594	0.605489	-0.623733	-0.181381	0.760302
19852	2.302340	5.914230	7.502120	-0.000994	0.004002	0.001722	-0.110399	-0.838611	-0.542342	0.524528	-0.818306	0.235044	0.579746	0.545468	0.605277	-0.623510	-0.181219	0.760523
19853	2.308280	5.960220	7.473420	0.002687	0.006145	0.004471	-0.113730	-0.844796	-0.542435	0.524589	-0.818270	0.235035	0.579729	0.545511	0.605254	-0.623475	-0.181253	0.760544
19854	2.323450	5.918390	7.513260	0.001998	0.002453	0.004946	-0.117175	-0.841994	-0.547822	0.524547	-0.818323	0.234944	0.579888	0.545452	0.605155	-0.623362	-0.181191	0.760650
19855	2.309780	5.927030	7.482830	-0.002244	-0.000333	-0.000049	-0.120213	-0.837444	-0.543336	0.524541	-0.818323	0.234956	0.579927	0.545467	0.605104	-0.623331	-0.181145	0.760687
19856	2.271540	5.930660	7.500920	0.004550	0.001071	-0.005730	-0.126430	-0.844511	-0.534899	0.524575	-0.818274	0.235049	0.579884	0.545554	0.605066	-0.623342	-0.181102	0.760688
19857	2.300390	5.947850	7.492500	0.002495	0.000452	0.004085	-0.121858	-0.840278	-0.543448	0.524598	-0.818250	0.235081	0.579871	0.545595	0.605042	-0.623335	-0.181087	0.760698
19858	2.317250	5.940150	7.463290	-0.003927	-0.000023	0.002148	-0.113424	-0.840822	-0.542921	0.524759	-0.818122	0.235169	0.579624	0.545733	0.605154	-0.623429	-0.181251	0.760581
19859	2.288370	5.922990	7.471700	-0.002244	-0.000333	-0.000049	-0.116709	-0.840936	-0.541494	0.524754	-0.818122	0.235182	0.579660	0.545749	0.605105	-0.623400	-0.181205	0.760616
19860	2.318910	5.906570	7.472970	-0.001185	-0.001691	0.001336	-0.115378	-0.839933	-0.543549	0.524725	-0.818147	0.235160	0.579755	0.545734	0.605028	-0.623336	-0.181138	0.760685
19861	2.323530	5.918240	7.513350	0.000623	0.001048	-0.003582	-0.115881	-0.838563	-0.543485	0.524707	-0.818163	0.235141	0.579793	0.545715	0.605009	-0.623316	-0.181119	0.760706
19862	2.309500	5.927080	7.482880	0.000623	0.001048	-0.003582	-0.117774	-0.835047	-0.544124	0.524686	-0.818180	0.235129	0.579882	0.545713	0.604925	-0.623251	-0.181049	0.760776
19863	2.294180	5.901670	7.521440	0.004177	0.000142	0.001889	-0.115645	-0.845742	-0.533910	0.524694	-0.818169	0.235151	0.579869	0.545733	0.604920	-0.623256	-0.181041	0.760774
19864	2.288040	5.923590	7.471320	0.007607	0.002166	0.000602	-0.117021	-0.846830	-0.552028	0.524727	-0.818171	0.235070	0.579831	0.545691	0.604994	-0.623264	-0.181156	0.760739
19865	2.309290	5.928080	7.482160	0.003118	0.001500	0.000504	-0.112077	-0.843880	-0.543678	0.524735	-0.818165	0.235072	0.579832	0.545700	0.604984	-0.623256	-0.181155	0.760746
19866	2.309250	5.928300	7.482000	0.003680	0.002143	0.002750	-0.109099	-0.836574	-0.547652	0.524682	-0.818205	0.235052	0.579972	0.545678	0.604869	-0.623170	-0.181040	0.760844
19867	2.321520	5.952990	7.502860	0.003680	0.002143	0.002750	-0.112735	-0.838823	-0.539708	0.524708	-0.818185	0.235063	0.579959	0.545706	0.604858	-0.623161	-0.181047	0.760850
19868	2.315510	5.907270	7.531380	0.005236	-0.001216	0.003274	-0.121351	-0.839330	-0.546712	0.524640	-0.818237	0.235035	0.580141	0.545676	0.604710	-0.623049	-0.180902	0.760976
19869	2.338510	5.946110	7.472950	0.007230	-0.001003	-0.000713	-0.119677	-0.837429	-0.538602	0.524626	-0.818242	0.235048	0.580125	0.545669	0.604732	-0.623076	-0.180901	0.760954
19870	2.271760	5.933270	7.498790	0.008474	-0.004885	0.001603	-0.113248	-0.845240	-0.538268	0.524698	-0.818151	0.235205	0.579954	0.545801	0.604777	-0.623174	-0.180917	0.760870
19871	2.259910	5.909050	7.477430	-0.000126	-0.003049	0.002722	-0.108936	-0.845178	-0.539370	0.524691	-0.818141	0.235256	0.579965	0.545835	0.604735	-0.623169	-0.180859	0.760888
19872	2.309160	5.963290	7.470700	0.003489	-0.003550	0.002365	-0.116125	-0.843349	-0.544363	0.524549	-0.818296	0.235031	0.580178	0.545602	0.604740	-0.623090	-0.180856	0.760953
19873	2.289870	5.925820	7.468990	-0.006112	-0.005929	0.005751	-0.120197	-0.844136	-0.542668	0.524542	-0.818276	0.235119	0.580212	0.545671	0.604647	-0.623065	-0.180743	0.761000
19874	2.305920	5.950860	7.430480	-0.005615	-0.007930	0.004891	-0.122579	-0.843800	-0.540934	0.524516	-0.818268	0.235202	0.580244	0.545718	0.604572	-0.623056	-0.180634	0.761034
19875	2.284170	5.911660	7.488830	-0.010099	-0.006355	0.013729	-0.124007	-0.845092	-0.545246	0.524553	-0.818205	0.235341	0.580261	0.545859	0.604429	-0.623010	-0.180496	0.761104
19876	2.328160	5.918850	7.511440	-0.006353	-0.001569	0.019586	-0.120300	-0.834310	-0.546190	0.524724	-0.818038	0.235538	0.580063	0.546102	0.604401	-0.623050	-0.180517	0.761066
19877	2.353570	5.923170	7.463180	-0.007167	-0.002331	0.013303	-0.112673	-0.839430	-0.547520	0.524784	-0.817969	0.235645	0.580062	0.546234	0.604282	-0.623001	-0.180428	0.761127
19878	2.296470	5.888710	7.479940	-0.005240	-0.004761	0.006208	-0.112082	-0.832062	-0.549984	0.524796	-0.817912	0.235816	0.580145	0.546396	0.604055	-0.622913	-0.180198	0.761254
19879	2.288270	5.908540	7.490050	-0.002049	0.001620	0.018755	-0.119956	-0.840316	-0.553546	0.524911	-0.817806	0.235927	0.580084	0.546564	0.603962	-0.622873	-0.180169	0.761294
19880	2.313670	5.913090	7.441610	-0.005614	-0.005690	0.013830	-0.120530	-0.839479	-0.543911	0.524946	-0.817697	0.236227	0.580179	0.546844	0.603617	-0.622755	-0.179813	0.761474
19881	2.290650	5.907080	7.490470	-0.006422	-0.004213	0.016484	-0.122050	-0.843236	-0.546933	0.525012	-0.817614	0.236369	0.580158	0.547003	0.603494	-0.622720	-0.179710	0.761528
19882	2.299620	5.918920	7.471470	-0.006601	0.000550	0.024493	-0.120181	-0.838265	-0.546562	0.525195	-0.817435	0.236579	0.580032	0.547287	0.603357	-0.622682	-0.179657	0.761571
19883	2.404310	5.893380	7.496480	-0.007036	0.002957	0.019526	-0.122677	-0.840883	-0.551414	0.525323	-0.817322	0.236686	0.579998	0.547472	0.603222	-0.622606	-0.179609	0.761645
19884	2.388490	5.900100	7.526160	-0.005984	-0.000639	0.011973	-0.124259	-0.843071	-0.545048	0.525426	-0.817192	0.236906	0.579957	0.547715	0.603040	-0.622557	-0.179458	0.761721
19885	2.352390	5.869980	7.553940	-0.000557	0.001595	0.006693	-0.115091	-0.839209	-0.549544	0.525471	-0.817151	0.236946	0.579951	0.547784	0.602984	-0.622525	-0.179434	0.761752
19886	2.315960	5.907890	7.502930	0.005499	0.007114	0.006769	-0.126639	-0.838493	-0.542253	0.525545	-0.817096	0.236974	0.579935	0.547867	0.602924	-0.622477	-0.179435	0.761791
19887	2.338520	5.879290	7.523090	0.013108	0.009273	0.007370	-0.122087	-0.840033	-0.552473	0.525642	-0.817037	0.236960	0.579839	0.547917	0.602971	-0.622484	-0.179548	0.761759
19888	2.323350	5.921700	7.482850	0.006310	0.007875	0.013057	-0.120106	-0.843913	-0.546089	0.525851	-0.816852	0.237135	0.579624	0.548172	0.602945	-0.622508	-0.179610	0.761724
19889	2.330960	5.934910	7.463190	0.009359	0.004490	0.001511	-0.125679	-0.840691	-0.544300	0.525884	-0.816834	0.237124	0.579583	0.548181	0.602977	-0.622519	-0.179663	0.761703
19890	2.361080	5.919080	7.464050	0.002803	-0.001266	-0.006645	-0.122669	-0.844165	-0.539665	0.525872	-0.816840	0.237132	0.579555	0.548169	0.603015	-0.622555	-0.179677	0.761670
19891	2.272640	5.901950	7.479180	-0.000447	-0.005811	-0.004425	-0.130006	-0.842500	-0.543781	0.525806	-0.816873	0.237164	0.579606	0.548147	0.602986	-0.622563	-0.179592	0.761683
19892	2.294150	5.906010	7.490240	-0.000313	-0.000524	0.001792	-0.115272	-0.841387	-0.543636	0.525906	-0.816796	0.237206	0.579429	0.548217	0.603092	-0.622644	-0.179726	0.761586
19893	2.375050	5.910540	7.494280	-0.000380	-0.003168	-0.001316	-0.115508	-0.840575	-0.542602	0.525875	-0.816808	0.237236	0.579462	0.548221	0.603057	-0.622639	-0.179664	0.761604
19894	2.346060	5.893860	7.502390	0.000986	-0.006242	-0.010663	-0.115174	-0.840280	-0.544579	0.525700	-0.816962	0.237092	0.579695	0.548024	0.603011	-0.622570	-0.179562	0.761685
19895	2.289680	5.894820	7.449420	0.005167	-0.003865	0.000167	-0.115091	-0.838593	-0.550708	0.525673	-0.816967	0.237135	0.579686	0.548029	0.603015	-0.622601	-0.179525	0.761669
19896	2.307900	5.898470	7.519750	0.012540	0.006393	-0.003818	-0.122169	-0.836619	-0.549715	0.525611	-0.817036	0.237035	0.579837	0.547943	0.602949	-0.622513	-0.179475	0.761752
19897	2.336450	5.916170	7.510980	0.008416	0.000681	-0.002052	-0.120385	-0.831130	-0.552653	0.525600	-0.817045	0.237030	0.579820	0.547924	0.602982	-0.622538	-0.179493	0.761728
19898	2.352760	5.909520	7.481070	0.015842	0.005365	-0.002381	-0.122312	-0.837369	-0.547475	0.525670	-0.816949	0.237202	0.579738	0.548090	0.602911	-0.622556	-0.179417	0.761731
19899	2.299080	5.956040	7.458640	0.011352	0.004703	-0.002479	-0.120735	-0.844813	-0.547349	0.525681	-0.816953	0.237165	0.579705	0.548064	0.602966	-0.622577	-0.179482	0.761699
19900	2.301610	5.890500	7.476960	0.008911	-0.001321	-0.002911	-0.118807	-0.835848	-0.547358	0.525666	-0.816947	0.237221	0.579678	0.548083	0.602975	-0.622615	-0.179451	0.761674
19901	2.367160	5.937580	7.440650	0.002852	-0.009082	-0.011926	-0.119239	-0.838642	-0.543753	0.525536	-0.817027	0.237232	0.579748	0.547995	0.602988	-0.622659	-0.179357	0.761661
19902	2.284950	5.899220	7.505350	0.002472	-0.012250	-0.013240	-0.119634	-0.838498	-0.551778	0.525382	-0.817111	0.237284	0.579863	0.547927	0.602938	-0.622682	-0.179180	0.761684
19903	2.314080	5.916690	7.496570	0.007589	-0.008300	-0.007787	-0.120711	-0.843244	-0.544751	0.525281	-0.817167	0.237315	0.579882	0.547865	0.602977	-0.622749	-0.179118	0.761643
19904	2.349430	5.912840	7.537440	0.008647	-0.009658	-0.006400	-0.117090	-0.846450	-0.547723	0.525170	-0.817212	0.237404	0.579922	0.547841	0.602960	-0.622806	-0.178980	0.761629
19905	2.323390	5.897980	7.485240	0.010836	-0.003754	-0.010007	-0.114508	-0.843064	-0.542762	0.525085	-0.817272	0.237387	0.579932	0.547755	0.603028	-0.622868	-0.178972	0.761580
19906	2.285230	5.902780	7.502460	0.017439	-0.005808	-0.007135	-0.115144	-0.843240	-0.547912	0.524903	-0.817426	0.237261	0.580059	0.547534	0.603108	-0.622904	-0.178948	0.761557
19907	2.292990	5.916930	7.481970	0.016883	-0.004208	-0.000444	-0.115220	-0.838152	-0.538824	0.524870	-0.817434	0.237304	0.579982	0.547514	0.603200	-0.623003	-0.178969	0.761470
19908	2.303840	5.931760	7.401980	0.011655	-0.000746	0.005216	-0.118658	-0.840190	-0.545324	0.524818	-0.817488	0.237235	0.580062	0.547439	0.603191	-0.622973	-0.178954	0.761499
19909	2.360800	5.931890	7.453970	0.008157	-0.005413	0.003400	-0.117681	-0.842977	-0.543333	0.524800	-0.817477	0.237310	0.580020	0.547466	0.603207	-0.623027	-0.178919	0.761463
19910	2.361130	5.932270	7.453550	0.001234	-0.006128	-0.006615	-0.118624	-0.838370	-0.544842	0.524684	-0.817563	0.237272	0.580146	0.547370	0.603173	-0.623007	-0.178823	0.761502
19911	2.337060	5.927640	7.501740	0.008712	-0.007014	-0.003289	-0.121635	-0.839930	-0.541804	0.524617	-0.817592	0.237318	0.580136	0.547341	0.603208	-0.623072	-0.178777	0.761459
19912	2.317640	5.890910	7.499550	0.003533	-0.011368	-0.002907	-0.119407	-0.844056	-0.536329	0.524542	-0.817618	0.237395	0.580149	0.547333	0.603202	-0.623123	-0.178680	0.761440
19913	2.295220	5.920270	7.478650	0.001233	-0.006128	-0.006614	-0.120751	-0.834682	-0.542082	0.524461	-0.817664	0.237414	0.580203	0.547291	0.603189	-0.623141	-0.178601	0.761444
19914	2.245250	5.899790	7.475370	0.010964	-0.004436	0.005695	-0.117606	-0.840365	-0.543332	0.524480	-0.817651	0.237418	0.580111	0.547284	0.603285	-0.623211	-0.178682	0.761367
19915	2.372260	5.914040	7.441270	0.003737	-0.003428	0.006408	-0.124431	-0.844337	-0.548252	0.524492	-0.817621	0.237495	0.580081	0.547343	0.603260	-0.623229	-0.178639	0.761363
19916	2.334850	5.917770	7.459130	0.003106	-0.006720	0.001058	-0.120146	-0.839568	-0.541268	0.524450	-0.817626	0.237571	0.580090	0.547363	0.603233	-0.623256	-0.178553	0.761361
19917	2.340090	5.929720	7.499150	0.002542	-0.007364	-0.001188	-0.124147	-0.836306	-0.546798	0.524393	-0.817645	0.237632	0.580107	0.547362	0.603217	-0.623288	-0.178470	0.761354
19918	2.349540	5.909670	7.488850	0.006535	-0.004699	-0.000232	-0.119775	-0.846924	-0.549141	0.524406	-0.817607	0.237731	0.580039	0.547428	0.603223	-0.623340	-0.178440	0.761319
19919	2.304280	5.900850	7.526010	0.004360	-0.002384	0.002824	-0.123364	-0.831527	-0.543758	0.524404	-0.817595	0.237779	0.580024	0.547457	0.603211	-0.623356	-0.178409	0.761313
19920	2.319790	5.927090	7.486580	0.016948	-0.001562	0.002662	-0.114315	-0.841927	-0.545467	0.524428	-0.817550	0.237879	0.579918	0.547522	0.603253	-0.623434	-0.178413	0.761248
19921	2.371570	5.916150	7.497830	0.017386	0.002007	-0.001856	-0.121788	-0.842254	-0.547133	0.524426	-0.817556	0.237866	0.579846	0.547490	0.603352	-0.623503	-0.178488	0.761174
19922	2.298480	5.925470	7.473530	0.013760	-0.005707	-0.000941	-0.122395	-0.837512	-0.545081	0.524330	-0.817614	0.237876	0.579899	0.547426	0.603359	-0.623534	-0.178415	0.761166
19923	2.327810	5.943300	7.464320	0.013897	-0.000412	0.005266	-0.119144	-0.845142	-0.544322	0.524354	-0.817585	0.237923	0.579812	0.547458	0.603414	-0.623595	-0.178451	0.761107
19924	2.337160	5.923600	7.453770	0.008915	0.000928	0.006027	-0.121087	-0.841816	-0.540838	0.524387	-0.817553	0.237960	0.579769	0.547502	0.603415	-0.623607	-0.178462	0.761095
19925	2.358900	5.928000	7.464490	0.002679	-0.002069	0.005023	-0.121155	-0.843500	-0.543855	0.524400	-0.817528	0.238018	0.579753	0.547552	0.603385	-0.623612	-0.178423	0.761100
19926	2.321270	5.931820	7.482380	0.005164	-0.003864	0.000176	-0.119885	-0.837350	-0.549604	0.524365	-0.817554	0.238007	0.579753	0.547512	0.603421	-0.623641	-0.178427	0.761076
19927	2.327740	5.910710	7.531920	0.001483	-0.006008	-0.002572	-0.122738	-0.836359	-0.540623	0.524308	-0.817578	0.238050	0.579785	0.547502	0.603400	-0.623659	-0.178350	0.761079
19928	2.321630	5.932520	7.481710	0.008410	0.000680	-0.002050	-0.117999	-0.832840	-0.546841	0.524331	-0.817546	0.238109	0.579756	0.547558	0.603377	-0.623667	-0.178324	0.761078
19929	2.292920	5.916160	7.489570	0.006544	-0.002448	0.008707	-0.118761	-0.843184	-0.545900	0.524362	-0.817501	0.238193	0.579697	0.547631	0.603367	-0.623696	-0.178303	0.761060
19930	2.358800	5.895830	7.531780	0.011850	0.004950	0.005594	-0.113946	-0.838049	-0.548717	0.524402	-0.817469	0.238218	0.579705	0.547687	0.603309	-0.623655	-0.178280	0.761098
19931	2.402880	5.938980	7.484040	0.013529	0.004636	0.003398	-0.118978	-0.838819	-0.547003	0.524446	-0.817441	0.238216	0.579630	0.547704	0.603365	-0.623687	-0.178355	0.761055
19932	2.344640	5.906430	7.499900	0.016325	0.003360	-0.003241	-0.112677	-0.838691	-0.546157	0.524391	-0.817485	0.238185	0.579721	0.547658	0.603320	-0.623649	-0.178295	0.761100
19933	2.328930	5.949640	7.458920	0.020317	0.006025	-0.002284	-0.121388	-0.836873	-0.544145	0.524411	-0.817486	0.238138	0.579635	0.547617	0.603440	-0.623712	-0.178418	0.761019
19934	2.343420	5.909480	7.497870	0.020064	0.005899	-0.006321	-0.123868	-0.835307	-0.544898	0.524372	-0.817537	0.238050	0.579682	0.547530	0.603474	-0.623701	-0.178452	0.761020
19935	2.307520	5.915730	7.455190	0.024306	0.008691	-0.001324	-0.121265	-0.841936	-0.544099	0.524415	-0.817527	0.237989	0.579566	0.547490	0.603621	-0.623773	-0.178618	0.760922
19936	2.357410	5.938140	7.456900	0.015769	0.004969	0.003453	-0.119936	-0.840076	-0.540524	0.524507	-0.817452	0.238045	0.579428	0.547575	0.603676	-0.623824	-0.178702	0.760861
19937	2.328020	5.922650	7.464300	0.019750	0.005377	-0.004523	-0.125131	-0.841979	-0.541063	0.524510	-0.817465	0.237991	0.579357	0.547517	0.603797	-0.623887	-0.178816	0.760782
19938	2.356410	5.940830	7.455070	0.013516	0.002380	-0.005529	-0.120283	-0.845096	-0.539513	0.524516	-0.817479	0.237930	0.579280	0.547456	0.603926	-0.623953	-0.178940	0.760699
19939	2.340710	5.916530	7.493150	0.012641	0.001213	-0.005981	-0.122756	-0.847552	-0.544871	0.524485	-0.817508	0.237898	0.579261	0.547399	0.603996	-0.623997	-0.178982	0.760653
19940	2.356790	5.909860	7.463250	0.012526	0.006387	-0.003817	-0.119161	-0.838110	-0.548702	0.524469	-0.817558	0.237764	0.579246	0.547281	0.604117	-0.624024	-0.179117	0.760599
19941	2.360650	5.922930	7.502880	0.015322	0.005106	-0.010451	-0.119624	-0.845879	-0.543657	0.524437	-0.817605	0.237674	0.579234	0.547182	0.604219	-0.624063	-0.179205	0.760546
19942	2.278930	5.919610	7.498150	0.014515	0.006590	-0.007802	-0.125534	-0.838079	-0.540875	0.524403	-0.817648	0.237598	0.579275	0.547108	0.604246	-0.624053	-0.179234	0.760548
19943	2.307080	5.937940	7.488880	0.023491	0.010178	0.001335	-0.125750	-0.838146	-0.541885	0.524470	-0.817621	0.237542	0.579150	0.547091	0.604382	-0.624112	-0.179408	0.760458
19944	2.310890	5.951530	7.528110	0.022249	0.014056	-0.000992	-0.122374	-0.835715	-0.538822	0.524648	-0.817510	0.237532	0.578890	0.547168	0.604561	-0.624205	-0.179676	0.760319
19945	2.343240	5.937650	7.468660	0.021625	0.013018	0.002596	-0.123837	-0.847150	-0.534417	0.524740	-0.817471	0.237462	0.578769	0.547165	0.604679	-0.624239	-0.179863	0.760247
19946	2.351410	5.918830	7.457840	0.021868	0.010884	-0.002294	-0.118026	-0.841396	-0.533636	0.524837	-0.817450	0.237323	0.578584	0.547096	0.604918	-0.624329	-0.180172	0.760100
19947	2.341510	5.941020	7.466530	0.022857	0.006876	-0.004000	-0.125847	-0.843717	-0.539597	0.524853	-0.817458	0.237260	0.578490	0.547036	0.605062	-0.624403	-0.180316	0.760005
19948	2.365100	5.947570	7.416780	0.015931	-0.002080	-0.013454	-0.124393	-0.837010	-0.547620	0.524783	-0.817541	0.237129	0.578438	0.546861	0.605270	-0.624510	-0.180471	0.759880
19949	2.280890	5.943580	7.471510	0.014746	-0.003766	-0.012113	-0.114217	-0.838242	-0.545513	0.524685	-0.817613	0.237097	0.578437	0.546749	0.605373	-0.624593	-0.180484	0.759809
19950	2.302030	5.948900	7.481730	0.011636	-0.002998	-0.003688	-0.118291	-0.839977	-0.534543	0.524648	-0.817606	0.237202	0.578453	0.546799	0.605313	-0.624609	-0.180366	0.759824
19951	2.333860	5.967150	7.413120	0.003855	-0.002640	-0.005238	-0.111736	-0.842645	-0.546507	0.524598	-0.817638	0.237203	0.578484	0.546763	0.605315	-0.624623	-0.180329	0.759821
19952	2.311070	5.929620	7.471020	0.006842	-0.004180	-0.002001	-0.113319	-0.839584	-0.541013	0.524493	-0.817727	0.237129	0.578621	0.546653	0.605283	-0.624584	-0.180259	0.759870
19953	2.331030	5.967290	7.472120	0.003114	0.001500	0.000505	-0.127515	-0.843541	-0.542544	0.524501	-0.817720	0.237133	0.578627	0.546666	0.605266	-0.624571	-0.180251	0.759882
19954	2.340070	5.947230	7.462030	0.007220	-0.001008	-0.000695	-0.115192	-0.837560	-0.534920	0.524492	-0.817722	0.237145	0.578618	0.546664	0.605277	-0.624587	-0.180247	0.759870
19955	2.311240	5.930890	7.469950	0.006035	-0.002694	0.000645	-0.118908	-0.844816	-0.540497	0.524475	-0.817723	0.237182	0.578605	0.546672	0.605282	-0.624613	-0.180221	0.759854
19956	2.332650	5.935550	7.480620	0.007597	0.002164	0.000611	-0.117801	-0.843643	-0.546550	0.524458	-0.817766	0.237071	0.578654	0.546588	0.605310	-0.624583	-0.180278	0.759866
19957	2.362950	5.919980	7.481370	0.011140	-0.000995	-0.002833	-0.121713	-0.844949	-0.539454	0.524431	-0.817783	0.237073	0.578628	0.546558	0.605362	-0.624629	-0.180293	0.759824
19958	2.323410	5.957720	7.489090	0.012441	-0.004485	-0.006330	-0.120227	-0.834877	-0.536402	0.524339	-0.817847	0.237056	0.578653	0.546469	0.605419	-0.624684	-0.180272	0.759784
19959	2.332180	5.938470	7.478450	0.014247	-0.001765	-0.011254	-0.115135	-0.843227	-0.544951	0.524259	-0.817911	0.237013	0.578651	0.546365	0.605515	-0.624752	-0.180299	0.759722
19960	2.319450	5.914960	7.456850	0.010954	0.001528	-0.003772	-0.118671	-0.837048	-0.549860	0.524235	-0.817940	0.236964	0.578686	0.546317	0.605525	-0.624741	-0.180309	0.759729
19961	2.310340	5.936420	7.465840	0.014059	-0.005188	-0.002689	-0.119601	-0.839980	-0.543832	0.524183	-0.817963	0.236999	0.578641	0.546283	0.605598	-0.624826	-0.180307	0.759659
19962	2.330290	5.974570	7.466530	0.007529	-0.000490	-0.002485	-0.115920	-0.843754	-0.542506	0.524172	-0.817943	0.237092	0.578674	0.546352	0.605505	-0.624804	-0.180190	0.759705
19963	2.301270	5.958390	7.474400	0.008024	-0.002495	-0.003336	-0.117050	-0.839257	-0.542928	0.524133	-0.817965	0.237103	0.578670	0.546324	0.605533	-0.624840	-0.180176	0.759679
19964	2.334680	5.943480	7.415400	0.009081	-0.003848	-0.001942	-0.118650	-0.834055	-0.543863	0.524050	-0.818021	0.237091	0.578757	0.546266	0.605503	-0.624829	-0.180095	0.759707
19965	2.319670	5.918730	7.453790	0.004600	-0.004513	-0.002049	-0.121142	-0.836400	-0.541407	0.524006	-0.818040	0.237125	0.578769	0.546255	0.605502	-0.624855	-0.180046	0.759697
19966	2.332000	5.943850	7.474220	0.006094	-0.002310	-0.005181	-0.113936	-0.840629	-0.540246	0.524007	-0.818016	0.237205	0.578768	0.546314	0.605448	-0.624855	-0.179973	0.759714
19967	2.309390	5.973150	7.453120	0.001671	-0.008535	-0.001612	-0.119093	-0.844268	-0.538177	0.523940	-0.818039	0.237273	0.578796	0.546312	0.605424	-0.624885	-0.179874	0.759713
19968	2.302030	5.960860	7.472200	0.006655	-0.001659	-0.002936	-0.114729	-0.831053	-0.542330	0.523857	-0.818120	0.237179	0.578894	0.546197	0.605434	-0.624864	-0.179860	0.759734
19969	2.332650	5.944910	7.473180	0.002677	-0.002054	0.005032	-0.121320	-0.843620	-0.533947	0.523869	-0.818095	0.237237	0.578881	0.546247	0.605402	-0.624866	-0.179819	0.759742
19970	2.363480	5.928800	7.474220	0.004356	-0.002373	0.002840	-0.114079	-0.842118	-0.547046	0.523875	-0.818087	0.237250	0.578893	0.546265	0.605374	-0.624850	-0.179799	0.759760
19971	2.333290	5.945410	7.472580	0.004037	-0.005165	-0.004292	-0.113554	-0.837635	-0.540873	0.523814	-0.818119	0.237275	0.578920	0.546236	0.605374	-0.624876	-0.179740	0.759752
19972	2.325790	5.933280	7.491600	0.007150	-0.003664	-0.003787	-0.124053	-0.844193	-0.546207	0.523695	-0.818205	0.237245	0.579094	0.546156	0.605280	-0.624815	-0.179595	0.759837
19973	2.342410	5.926080	7.461900	0.007528	-0.000490	-0.002484	-0.123245	-0.845012	-0.537080	0.523673	-0.818218	0.237245	0.579091	0.546136	0.605301	-0.624836	-0.179593	0.759819
19974	2.311800	5.942980	7.460170	0.007905	0.002683	-0.001181	-0.119571	-0.847036	-0.544909	0.523704	-0.818198	0.237246	0.579011	0.546142	0.605372	-0.624884	-0.179668	0.759763
19975	2.325370	5.935040	7.490330	0.003852	-0.002644	-0.005233	-0.121552	-0.841818	-0.545462	0.523653	-0.818231	0.237246	0.579045	0.546106	0.605372	-0.624896	-0.179629	0.759762
19976	2.290230	5.939840	7.448340	0.008585	-0.001843	-0.001089	-0.124240	-0.847332	-0.549576	0.523617	-0.818243	0.237286	0.579052	0.546105	0.605367	-0.624920	-0.179579	0.759754
19977	2.311480	5.944750	7.458850	0.010145	0.003016	-0.001128	-0.122103	-0.836414	-0.541087	0.523625	-0.818243	0.237268	0.579025	0.546091	0.605405	-0.624938	-0.179621	0.759729
19978	2.332780	5.949580	7.469420	0.006906	-0.001523	0.001102	-0.120571	-0.836121	-0.539885	0.523657	-0.818187	0.237386	0.578952	0.546187	0.605388	-0.624978	-0.179581	0.759706
19979	2.355740	5.921150	7.489770	0.004909	-0.003997	-0.003838	-0.120987	-0.841136	-0.534448	0.523606	-0.818215	0.237406	0.578972	0.546161	0.605393	-0.625003	-0.179536	0.759696
19980	2.340450	5.963150	7.449190	0.004724	-0.001476	-0.004780	-0.115346	-0.847973	-0.537253	0.523599	-0.818228	0.237377	0.578958	0.546129	0.605434	-0.625021	-0.179573	0.759672
19981	2.332700	5.951030	7.468290	0.006091	-0.002312	-0.005178	-0.114803	-0.841509	-0.544099	0.523550	-0.818259	0.237375	0.578978	0.546090	0.605451	-0.625044	-0.179549	0.759659
19982	2.341490	5.931210	7.458120	0.006711	-0.001280	-0.008763	-0.121954	-0.841172	-0.545618	0.523399	-0.818401	0.237220	0.579160	0.545891	0.605456	-0.625002	-0.179507	0.759704
19983	2.324560	5.939700	7.486890	0.007526	-0.000490	-0.002482	-0.118169	-0.839380	-0.535618	0.523377	-0.818415	0.237220	0.579156	0.545871	0.605477	-0.625023	-0.179505	0.759687
19984	2.333260	5.919960	7.476680	0.007894	0.000405	-0.010103	-0.120599	-0.837291	-0.537408	0.523330	-0.818460	0.237167	0.579187	0.545798	0.605514	-0.625034	-0.179519	0.759674
19985	2.331410	5.953710	7.466560	0.003783	-0.005303	-0.008324	-0.114285	-0.833458	-0.540684	0.523244	-0.818515	0.237169	0.579238	0.545737	0.605520	-0.625059	-0.179458	0.759668
19986	2.294770	5.924800	7.494030	0.006023	-0.004970	-0.008270	-0.123009	-0.841193	-0.545267	0.523179	-0.818558	0.237163	0.579301	0.545692	0.605500	-0.625055	-0.179396	0.759686
19987	2.317380	5.963240	7.435230	0.004723	-0.001476	-0.004779	-0.118247	-0.840398	-0.542485	0.523138	-0.818586	0.237157	0.579327	0.545658	0.605506	-0.625065	-0.179372	0.759684
19988	2.332460	5.922160	7.475190	0.004790	0.001182	-0.001685	-0.118801	-0.841619	-0.546274	0.523149	-0.818567	0.237196	0.579330	0.545698	0.605467	-0.625053	-0.179335	0.759703
19989	2.301760	5.938930	7.473560	0.007340	0.002032	-0.003424	-0.131914	-0.837949	-0.540449	0.523138	-0.818582	0.237172	0.579333	0.545671	0.605489	-0.625060	-0.179353	0.759693
19990	2.322690	5.943900	7.484130	0.011324	0.004703	-0.002468	-0.119404	-0.838242	-0.535310	0.523236	-0.818497	0.237248	0.579178	0.545770	0.605548	-0.625122	-0.179435	0.759622
19991	2.314330	5.932340	7.503010	0.013998	0.008589	-0.006941	-0.126999	-0.845522	-0.537605	0.523245	-0.818519	0.237153	0.579157	0.545702	0.605628	-0.625133	-0.179543	0.759587
19992	2.336310	5.971150	7.444080	0.009150	0.007029	0.000573	-0.116962	-0.843774	-0.535655	0.523334	-0.818481	0.237089	0.579038	0.545701	0.605743	-0.625169	-0.179723	0.759515
19993	2.319020	5.979900	7.472760	0.013311	0.004898	-0.006447	-0.121294	-0.837790	-0.537998	0.523323	-0.818506	0.237025	0.579019	0.545638	0.605818	-0.625196	-0.179797	0.759476
19994	2.336600	5.939990	7.452660	0.010384	0.000875	-0.006008	-0.116714	-0.841754	-0.541114	0.523292	-0.818554	0.236930	0.579021	0.545540	0.605904	-0.625220	-0.179878	0.759437
19995	2.336110	5.940870	7.452120	0.006953	-0.003426	-0.013641	-0.117375	-0.837949	-0.541924	0.523187	-0.818633	0.236885	0.579080	0.545430	0.605948	-0.625253	-0.179849	0.759416
19996	2.297590	5.945240	7.469830	0.005275	-0.003106	-0.011451	-0.112984	-0.831711	-0.541373	0.523077	-0.818719	0.236832	0.579204	0.545327	0.605922	-0.625231	-0.179770	0.759453
19997	2.312310	5.971040	7.430560	0.004536	0.001044	-0.005719	-0.117618	-0.838379	-0.543046	0.523046	-0.818748	0.236801	0.579236	0.545286	0.605928	-0.625227	-0.179765	0.759458
19998	2.282970	5.954540	7.438820	0.002363	0.003369	-0.002682	-0.120125	-0.838103	-0.540302	0.523038	-0.818756	0.236788	0.579350	0.545302	0.605805	-0.625128	-0.179676	0.759560
19999	2.339000	5.955110	7.491210	0.009081	0.004371	-0.002518	-0.124260	-0.843308	-0.544691	0.523047	-0.818762	0.236752	0.579337	0.545279	0.605838	-0.625132	-0.179722	0.759546
20000	2.347750	5.935070	7.481250	0.001181	0.001685	-0.001341	-0.116648	-0.837178	-0.538195	0.523087	-0.818722	0.236800	0.579312	0.545344	0.605803	-0.625122	-0.179707	0.759558
20001	2.333460	5.943870	7.450550	0.006898	0.004413	-0.008399	-0.115737	-0.843386	-0.538344	0.523062	-0.818759	0.236728	0.579344	0.545277	0.605833	-0.625114	-0.179742	0.759556
20002	2.294800	5.948120	7.468390	0.006841	0.004037	-0.002572	-0.119898	-0.846124	-0.548423	0.523036	-0.818807	0.236618	0.579416	0.545193	0.605840	-0.625068	-0.179776	0.759586
20003	2.315610	5.953050	7.479060	0.009390	0.004886	-0.004309	-0.119604	-0.846167	-0.540195	0.523038	-0.818821	0.236567	0.579411	0.545155	0.605879	-0.625072	-0.179828	0.759570
20004	2.302830	5.929080	7.457860	0.008209	0.003202	-0.002968	-0.122340	-0.840045	-0.545278	0.523009	-0.818850	0.236529	0.579439	0.545109	0.605893	-0.625070	-0.179833	0.759571
20005	2.302410	5.929730	7.457480	0.008274	0.005862	0.000123	-0.120624	-0.845222	-0.538511	0.523042	-0.818838	0.236497	0.579418	0.545109	0.605913	-0.625062	-0.179888	0.759565
20006	2.321930	5.967620	7.458400	0.008526	0.006002	0.004159	-0.115266	-0.847304	-0.541166	0.523121	-0.818784	0.236511	0.579339	0.545168	0.605936	-0.625069	-0.179958	0.759542
20007	2.335340	5.959620	7.488760	0.001866	0.005374	-0.001833	-0.113687	-0.845503	-0.544090	0.523139	-0.818784	0.236471	0.579368	0.545163	0.605912	-0.625026	-0.179973	0.759574
20008	2.292140	5.951460	7.466540	0.005473	0.004873	-0.002174	-0.118981	-0.842090	-0.537067	0.523060	-0.818875	0.236331	0.579527	0.545034	0.605877	-0.624946	-0.179950	0.759645
20009	2.300660	5.931560	7.456560	0.008022	0.005721	-0.003910	-0.118085	-0.843456	-0.536383	0.523069	-0.818885	0.236276	0.579528	0.545001	0.605905	-0.624937	-0.180001	0.759640
20010	2.312440	5.956790	7.477060	0.004292	0.003188	-0.000833	-0.116344	-0.842359	-0.535158	0.523064	-0.818916	0.236178	0.579552	0.544932	0.605944	-0.624918	-0.180070	0.759639
20011	2.281720	5.973380	7.475500	0.005724	0.005014	0.001861	-0.123217	-0.839976	-0.533633	0.523102	-0.818897	0.236162	0.579538	0.544950	0.605941	-0.624900	-0.180104	0.759647
20012	2.307210	5.945450	7.436380	0.006595	0.006183	0.002313	-0.121034	-0.840389	-0.540821	0.523162	-0.818886	0.236066	0.579487	0.544918	0.606019	-0.624897	-0.180249	0.759615
20013	2.349610	5.954250	7.458350	0.002052	0.002854	-0.000889	-0.130796	-0.836366	-0.548302	0.523171	-0.818885	0.236050	0.579510	0.544921	0.605994	-0.624868	-0.180245	0.759639
20014	2.289920	5.953800	7.465360	0.001491	0.002199	-0.003132	-0.115899	-0.842023	-0.545210	0.523265	-0.818786	0.236184	0.579402	0.545074	0.605960	-0.624890	-0.180232	0.759624
20015	2.310900	5.958280	7.476350	0.003795	0.005194	0.000015	-0.119392	-0.839680	-0.545547	0.523293	-0.818776	0.236157	0.579409	0.545081	0.605947	-0.624859	-0.180257	0.759643
20016	2.311990	5.925520	7.486020	0.004666	0.006364	0.000466	-0.113790	-0.849515	-0.539582	0.523315	-0.818763	0.236153	0.579467	0.545115	0.605861	-0.624787	-0.180214	0.759713
20017	2.310190	5.959040	7.475960	0.007588	0.002172	0.000620	-0.118927	-0.836398	-0.538334	0.523328	-0.818755	0.236152	0.579448	0.545120	0.605875	-0.624794	-0.180234	0.759702
20018	2.311750	5.926310	7.485460	0.003923	0.002301	0.006786	-0.122062	-0.845042	-0.539271	0.523335	-0.818765	0.236101	0.579493	0.545101	0.605849	-0.624747	-0.180243	0.759739
20019	2.288930	5.955320	7.464450	0.002549	0.000848	-0.001736	-0.115163	-0.835882	-0.540191	0.523326	-0.818773	0.236095	0.579517	0.545096	0.605830	-0.624731	-0.180225	0.759756
20020	2.291740	5.955950	7.404630	0.001742	0.002340	0.000903	-0.120924	-0.846708	-0.538856	0.523343	-0.818769	0.236071	0.579548	0.545102	0.605795	-0.624689	-0.180224	0.759791
20021	2.364810	5.948280	7.428110	0.000000	-0.000000	0.000000	-0.115325	-0.833943	-0.542778	0.523338	-0.818769	0.236083	0.579579	0.545116	0.605753	-0.624664	-0.180185	0.759821
20022	2.302370	5.947150	7.494950	-0.002490	-0.000476	-0.004091	-0.118397	-0.842525	-0.538812	0.523302	-0.818799	0.236057	0.579677	0.545092	0.605681	-0.624604	-0.180117	0.759887
20023	2.289960	5.922510	7.474180	0.003981	0.002674	0.000960	-0.122378	-0.843451	-0.545491	0.523320	-0.818789	0.236053	0.579679	0.545106	0.605666	-0.624587	-0.180122	0.759899
20024	2.318840	5.939550	7.465620	0.001368	-0.000836	-0.000395	-0.112232	-0.842484	-0.542237	0.523311	-0.818790	0.236070	0.579700	0.545116	0.605637	-0.624575	-0.180087	0.759917
20025	2.297360	5.935580	7.454380	0.006594	0.006184	0.002315	-0.119472	-0.852547	-0.535581	0.523358	-0.818766	0.236048	0.579678	0.545137	0.605640	-0.624555	-0.180135	0.759922
20026	2.288090	5.956350	7.463890	0.003735	0.004821	0.005842	-0.117974	-0.839713	-0.551311	0.523337	-0.818817	0.235918	0.579763	0.545046	0.605639	-0.624494	-0.180177	0.759963
20027	2.339750	5.944660	7.476150	0.007155	0.006839	0.004559	-0.124918	-0.844517	-0.542410	0.523402	-0.818779	0.235904	0.579726	0.545084	0.605641	-0.624474	-0.180234	0.759966
20028	2.327260	5.920370	7.455120	0.005659	0.002352	-0.001227	-0.116429	-0.842532	-0.544743	0.523427	-0.818745	0.235968	0.579713	0.545149	0.605595	-0.624466	-0.180191	0.759983
20029	2.318040	5.941290	7.464490	0.005846	-0.000168	-0.000282	-0.115495	-0.836534	-0.541631	0.523420	-0.818746	0.235979	0.579710	0.545150	0.605597	-0.624475	-0.180182	0.759978
20030	2.317910	5.941740	7.464170	0.005659	0.002352	-0.001227	-0.118674	-0.831922	-0.543646	0.523398	-0.818768	0.235952	0.579793	0.545135	0.605531	-0.624415	-0.180131	0.760038
20031	2.317550	5.942230	7.463900	0.005408	0.002209	-0.005262	-0.126862	-0.845476	-0.543482	0.523377	-0.818792	0.235914	0.579819	0.545096	0.605542	-0.624409	-0.180139	0.760042
20032	2.317220	5.942720	7.463600	0.004724	-0.001480	-0.004768	-0.121438	-0.843590	-0.537666	0.523396	-0.818758	0.235994	0.579775	0.545158	0.605528	-0.624434	-0.180107	0.760028
20033	2.288130	5.926280	7.471750	0.003917	0.000012	-0.002130	-0.117604	-0.844311	-0.536692	0.523379	-0.818769	0.235992	0.579793	0.545147	0.605520	-0.624431	-0.180090	0.760035
20034	2.303160	5.951910	7.432460	0.007026	0.001516	-0.001621	-0.117918	-0.839750	-0.531258	0.523358	-0.818808	0.235901	0.579797	0.545062	0.605592	-0.624445	-0.180167	0.760006
20035	2.278650	5.947660	7.480830	0.004851	0.003844	0.001412	-0.114749	-0.844306	-0.541119	0.523386	-0.818793	0.235892	0.579791	0.545079	0.605583	-0.624427	-0.180186	0.760016
20036	2.345400	5.961220	7.454100	0.005722	0.005014	0.001864	-0.120705	-0.840845	-0.542794	0.523385	-0.818831	0.235764	0.579841	0.544997	0.605609	-0.624382	-0.180261	0.760035
20037	2.323740	5.957410	7.442770	0.005968	0.002865	-0.003017	-0.122707	-0.839150	-0.544178	0.523381	-0.818842	0.235734	0.579852	0.544975	0.605619	-0.624375	-0.180278	0.760036
20038	2.306800	5.965820	7.471600	0.006716	0.001003	0.000172	-0.127388	-0.835810	-0.545190	0.523420	-0.818799	0.235798	0.579802	0.545042	0.605606	-0.624389	-0.180270	0.760027
20039	2.308060	5.933310	7.481060	0.008270	0.005862	0.000130	-0.117383	-0.838204	-0.541487	0.523453	-0.818787	0.235764	0.579781	0.545042	0.605626	-0.624380	-0.180325	0.760021
20040	2.324490	5.925990	7.451520	0.007586	0.002173	0.000624	-0.119144	-0.846959	-0.539155	0.523528	-0.818713	0.235854	0.579696	0.545152	0.605609	-0.624396	-0.180329	0.760007
20041	2.327320	5.971900	7.481470	0.009014	0.001706	-0.005597	-0.117902	-0.834576	-0.543575	0.523502	-0.818740	0.235819	0.579701	0.545103	0.605648	-0.624413	-0.180354	0.759987
20042	2.314770	5.947680	7.460420	0.001054	-0.003643	-0.007519	-0.121283	-0.848388	-0.541293	0.523424	-0.818796	0.235797	0.579795	0.545044	0.605612	-0.624392	-0.180277	0.760023
20043	2.297840	5.955950	7.489350	0.004163	-0.002138	-0.007009	-0.120227	-0.844140	-0.540575	0.523365	-0.818838	0.235782	0.579837	0.544992	0.605617	-0.624402	-0.180244	0.760023
20044	2.306880	5.935870	7.479390	0.004103	-0.002507	-0.001183	-0.118189	-0.842414	-0.541763	0.523320	-0.818872	0.235763	0.579854	0.544943	0.605645	-0.624424	-0.180238	0.760006
20045	2.285500	5.932050	7.467980	0.007025	0.001516	-0.001619	-0.120290	-0.843146	-0.539543	0.523316	-0.818878	0.235753	0.579851	0.544930	0.605660	-0.624430	-0.180250	0.759998
20046	2.314340	5.949530	7.459070	0.009451	-0.000668	-0.000616	-0.111410	-0.845349	-0.541057	0.523292	-0.818899	0.235733	0.579847	0.544893	0.605697	-0.624454	-0.180267	0.759974
20047	2.293040	5.945920	7.447470	0.008643	0.000825	0.002022	-0.116674	-0.836881	-0.536133	0.523305	-0.818886	0.235750	0.579815	0.544908	0.605715	-0.624473	-0.180282	0.759955
20048	2.302200	5.925890	7.437430	0.005037	0.001326	0.002359	-0.114260	-0.843531	-0.537629	0.523265	-0.818936	0.235663	0.579917	0.544838	0.605680	-0.624411	-0.180266	0.760010
20049	2.314320	5.951030	7.457880	0.005657	0.002352	-0.001225	-0.115505	-0.844053	-0.536252	0.523269	-0.818938	0.235648	0.579920	0.544830	0.605683	-0.624405	-0.180278	0.760012
20050	2.323390	5.930760	7.448060	0.001121	0.001315	0.004486	-0.111909	-0.839513	-0.537891	0.523231	-0.818992	0.235544	0.580027	0.544750	0.605654	-0.624338	-0.180275	0.760068
20051	2.326520	5.976030	7.478420	0.000310	0.000513	-0.001792	-0.119504	-0.841950	-0.549085	0.523220	-0.819001	0.235539	0.580067	0.544748	0.605618	-0.624310	-0.180243	0.760098
20052	2.306620	5.938850	7.477100	0.002175	-0.002329	-0.003031	-0.117084	-0.847206	-0.545097	0.523151	-0.819048	0.235527	0.580189	0.544713	0.605531	-0.624254	-0.180134	0.760170
20053	2.314070	5.951720	7.457410	0.002795	-0.001304	-0.006614	-0.118585	-0.846310	-0.547915	0.523101	-0.819086	0.235507	0.580239	0.544666	0.605525	-0.624250	-0.180100	0.760181
20054	2.254550	5.951440	7.464190	0.003543	-0.003165	-0.003424	-0.120662	-0.841644	-0.547093	0.523006	-0.819148	0.235503	0.580348	0.544610	0.605472	-0.624228	-0.179991	0.760225
20055	2.297350	5.960350	7.486000	0.006094	-0.000022	0.003756	-0.127124	-0.839116	-0.535845	0.523023	-0.819127	0.235536	0.580323	0.544643	0.605466	-0.624237	-0.179986	0.760220
20056	2.335680	5.956870	7.467690	0.000748	-0.001861	0.003190	-0.114530	-0.839928	-0.545994	0.523079	-0.819063	0.235635	0.580251	0.544745	0.605443	-0.624257	-0.179967	0.760207
20057	2.335860	5.956920	7.467600	0.001368	-0.000836	-0.000394	-0.120209	-0.832284	-0.535116	0.523067	-0.819067	0.235649	0.580277	0.544752	0.605412	-0.624243	-0.179929	0.760228
20058	2.314650	5.952750	7.456410	0.002489	0.000480	0.004093	-0.118676	-0.846692	-0.542089	0.523102	-0.819035	0.235683	0.580300	0.544816	0.605332	-0.624192	-0.179884	0.760280
20059	2.307090	5.940280	7.475820	0.001741	0.002341	0.000903	-0.114933	-0.840724	-0.547472	0.523118	-0.819025	0.235680	0.580318	0.544833	0.605300	-0.624163	-0.179874	0.760307
20060	2.336010	5.957290	7.467260	0.002735	-0.001672	-0.000787	-0.126205	-0.848741	-0.545275	0.523052	-0.819070	0.235671	0.580425	0.544798	0.605229	-0.624118	-0.179777	0.760366
20061	2.299620	5.928070	7.495000	0.002425	-0.002184	0.001004	-0.118833	-0.837697	-0.542996	0.523040	-0.819068	0.235703	0.580438	0.544815	0.605202	-0.624116	-0.179734	0.760378
20062	2.322550	5.966000	7.436260	0.005037	0.001327	0.002359	-0.118772	-0.843710	-0.548762	0.523074	-0.819032	0.235753	0.580397	0.544870	0.605191	-0.624126	-0.179729	0.760371
20063	2.328740	5.945400	7.486120	0.001304	-0.003500	-0.003482	-0.114495	-0.846265	-0.539262	0.523028	-0.819058	0.235769	0.580440	0.544852	0.605166	-0.624125	-0.179669	0.760386
20064	2.328660	5.945550	7.486020	0.001180	0.001683	-0.001340	-0.128327	-0.841522	-0.541119	0.522966	-0.819115	0.235706	0.580570	0.544788	0.605099	-0.624056	-0.179602	0.760459
20065	2.285860	5.937240	7.463750	0.002982	-0.003824	-0.005667	-0.113724	-0.842823	-0.540034	0.522905	-0.819153	0.235711	0.580614	0.544749	0.605092	-0.624066	-0.179548	0.760463
20066	2.293680	5.949850	7.444130	-0.001800	-0.002708	0.004924	-0.126848	-0.837845	-0.544781	0.522914	-0.819134	0.235758	0.580622	0.544794	0.605044	-0.624051	-0.179500	0.760487
20067	2.300070	5.928990	7.494140	0.003669	0.002163	0.002752	-0.115451	-0.841851	-0.542599	0.522939	-0.819115	0.235767	0.580618	0.544822	0.605022	-0.624034	-0.179499	0.760501
20068	2.307840	5.941780	7.474400	0.004353	-0.002362	0.002854	-0.126677	-0.845430	-0.541383	0.522960	-0.819077	0.235851	0.580592	0.544895	0.604981	-0.624040	-0.179447	0.760508
20069	2.315640	5.954550	7.454660	0.002799	0.000992	0.002301	-0.119470	-0.841561	-0.535271	0.522975	-0.819063	0.235867	0.580596	0.544922	0.604953	-0.624024	-0.179432	0.760525
20070	2.308210	5.942090	7.474040	0.001618	-0.000690	0.003641	-0.123477	-0.836095	-0.543189	0.522994	-0.819049	0.235874	0.580557	0.544933	0.604980	-0.624044	-0.179462	0.760502
20071	2.322220	5.933840	7.504500	0.001618	-0.000690	0.003642	-0.119441	-0.837008	-0.540849	0.523006	-0.819030	0.235911	0.580561	0.544973	0.604940	-0.624030	-0.179427	0.760522
20072	2.308540	5.942250	7.473820	0.004043	0.005339	0.004049	-0.123023	-0.836611	-0.544415	0.523102	-0.818957	0.235952	0.580513	0.545076	0.604894	-0.623994	-0.179448	0.760546
20073	2.346560	5.938850	7.455520	0.004102	-0.002508	-0.001180	-0.114338	-0.842339	-0.536123	0.523075	-0.818968	0.235974	0.580527	0.545072	0.604885	-0.624004	-0.179411	0.760546
20074	2.287340	5.938350	7.462410	-0.001181	-0.001683	0.001341	-0.123703	-0.833620	-0.547075	0.523059	-0.818978	0.235975	0.580592	0.545076	0.604818	-0.623957	-0.179350	0.760599
20075	2.292310	5.950580	7.502510	0.002612	-0.004703	0.001952	-0.115105	-0.842217	-0.539310	0.523037	-0.818976	0.236032	0.580598	0.545101	0.604790	-0.623970	-0.179287	0.760604
20076	2.318440	5.922240	7.463530	0.001057	-0.001348	0.001398	-0.125426	-0.841405	-0.537513	0.523042	-0.818958	0.236081	0.580636	0.545152	0.604707	-0.623930	-0.179210	0.760654
20077	2.347650	5.939120	7.454960	0.000684	-0.004525	0.000103	-0.120739	-0.838803	-0.540122	0.523010	-0.818966	0.236126	0.580664	0.545165	0.604669	-0.623931	-0.179138	0.760671
20078	2.311420	5.909930	7.482670	0.003728	-0.005686	-0.002476	-0.127957	-0.840421	-0.542194	0.522982	-0.818974	0.236159	0.580638	0.545157	0.604701	-0.623978	-0.179125	0.760635
20079	2.310140	5.943390	7.472410	0.006901	-0.001516	0.001121	-0.126908	-0.845894	-0.543091	0.522975	-0.818971	0.236187	0.580622	0.545166	0.604708	-0.623999	-0.179112	0.760621
20080	2.319380	5.923240	7.462450	0.004230	0.002821	0.004995	-0.119721	-0.838969	-0.545237	0.523068	-0.818890	0.236261	0.580497	0.545269	0.604735	-0.624037	-0.179168	0.760576
20081	2.309100	5.976880	7.462050	0.000934	-0.004379	0.004138	-0.129570	-0.844254	-0.537408	0.523061	-0.818875	0.236330	0.580503	0.545314	0.604689	-0.624039	-0.179099	0.760592
20082	2.327760	5.935990	7.442530	0.004353	-0.002363	0.002855	-0.118342	-0.841593	-0.545077	0.523088	-0.818838	0.236396	0.580436	0.545368	0.604705	-0.624078	-0.179101	0.760559
20083	2.297730	5.952310	7.440920	0.000437	-0.002372	0.004983	-0.112721	-0.833550	-0.541468	0.523098	-0.818815	0.236454	0.580440	0.545421	0.604653	-0.624066	-0.179045	0.760582
20084	2.290730	5.939670	7.460320	0.000624	-0.004891	0.005931	-0.117967	-0.840557	-0.547787	0.523060	-0.818824	0.236507	0.580543	0.545456	0.604522	-0.624001	-0.178899	0.760669
20085	2.333920	5.948140	7.482330	-0.000684	-0.003689	0.000497	-0.118207	-0.836765	-0.542810	0.523036	-0.818828	0.236548	0.580578	0.545475	0.604472	-0.623989	-0.178826	0.760696
20086	2.319140	5.923140	7.521160	0.003978	-0.005540	0.001560	-0.118088	-0.833423	-0.544118	0.522986	-0.818839	0.236616	0.580646	0.545500	0.604384	-0.623967	-0.178694	0.760745
20087	2.292150	5.939840	7.459740	0.001805	-0.003209	0.004590	-0.119524	-0.843021	-0.549005	0.522989	-0.818820	0.236678	0.580644	0.545547	0.604343	-0.623967	-0.178638	0.760758
20088	2.335220	5.948280	7.481820	-0.001987	-0.000187	0.003978	-0.124729	-0.843834	-0.537738	0.522996	-0.818797	0.236742	0.580727	0.545624	0.604194	-0.623885	-0.178508	0.760856
20089	2.323380	5.923370	7.461100	0.000934	-0.004379	0.004139	-0.115396	-0.835925	-0.541006	0.522988	-0.818782	0.236811	0.580733	0.545670	0.604147	-0.623886	-0.178438	0.760872
20090	2.323860	5.923320	7.460990	-0.000124	-0.003031	0.002740	-0.118831	-0.846651	-0.543747	0.522965	-0.818796	0.236812	0.580780	0.545664	0.604107	-0.623861	-0.178391	0.760904
20091	2.322890	5.956210	7.451080	-0.002175	-0.005883	0.003631	-0.121248	-0.842642	-0.539566	0.522945	-0.818787	0.236889	0.580808	0.545710	0.604038	-0.623851	-0.178292	0.760935
20092	2.315970	5.943360	7.470630	-0.002982	-0.004388	0.006268	-0.127546	-0.840723	-0.546994	0.522901	-0.818811	0.236904	0.580885	0.545704	0.603970	-0.623816	-0.178203	0.760984
20093	2.325570	5.922520	7.461090	-0.002858	-0.001357	0.003528	-0.132535	-0.842028	-0.535118	0.522909	-0.818794	0.236945	0.580918	0.545751	0.603896	-0.623779	-0.178137	0.761030
20094	2.345830	5.959700	7.462250	0.001804	-0.003209	0.004590	-0.118390	-0.842896	-0.543092	0.522983	-0.818711	0.237067	0.580775	0.545866	0.603929	-0.623851	-0.178162	0.760966
20095	2.338480	5.947150	7.481700	-0.001432	-0.001828	-0.002694	-0.119129	-0.842543	-0.539214	0.522951	-0.818729	0.237075	0.580831	0.545860	0.603881	-0.623825	-0.178100	0.761001
20096	2.309590	5.930250	7.490220	-0.000245	0.002153	0.004880	-0.121077	-0.841103	-0.546468	0.522938	-0.818753	0.237022	0.580918	0.545834	0.603821	-0.623755	-0.178071	0.761066
20097	2.318940	5.909780	7.480460	0.003481	-0.003534	0.002404	-0.124237	-0.838019	-0.542269	0.522926	-0.818746	0.237073	0.580917	0.545860	0.603798	-0.623766	-0.178022	0.761068
20098	2.310240	5.930520	7.489810	0.004352	-0.002364	0.002855	-0.124477	-0.841036	-0.539594	0.522932	-0.818723	0.237140	0.580908	0.545913	0.603759	-0.623769	-0.177968	0.761078
20099	2.318270	5.943230	7.470020	0.003236	-0.001381	0.007285	-0.122803	-0.839973	-0.539196	0.522962	-0.818685	0.237204	0.580884	0.545979	0.603722	-0.623767	-0.177936	0.761087
20100	2.340090	5.947590	7.480840	0.003546	-0.000869	0.005493	-0.127879	-0.844672	-0.538343	0.522991	-0.818660	0.237227	0.580845	0.546012	0.603730	-0.623778	-0.177953	0.761074
20101	2.378480	5.943980	7.462530	0.000681	-0.004526	0.000104	-0.121924	-0.833646	-0.547150	0.522959	-0.818667	0.237272	0.580874	0.546024	0.603692	-0.623779	-0.177881	0.761090
20102	2.305740	5.951780	7.438850	0.001177	-0.006532	-0.000740	-0.120386	-0.836982	-0.546965	0.522937	-0.818657	0.237355	0.580865	0.546063	0.603664	-0.623805	-0.177807	0.761086
20103	2.312340	5.930810	7.488920	-0.004600	-0.003697	0.002627	-0.131218	-0.848593	-0.542643	0.522924	-0.818649	0.237409	0.580913	0.546106	0.603580	-0.623770	-0.177712	0.761136
20104	2.329400	5.922530	7.459890	-0.002924	-0.004022	0.000441	-0.126876	-0.841149	-0.543155	0.522909	-0.818639	0.237478	0.580932	0.546148	0.603524	-0.623766	-0.177630	0.761159
20105	2.320870	5.942730	7.469610	-0.002421	-0.003729	0.008513	-0.119123	-0.838359	-0.546121	0.522931	-0.818599	0.237568	0.580936	0.546235	0.603441	-0.623744	-0.177547	0.761196
20106	2.321480	5.942550	7.469560	0.002741	0.000626	0.008130	-0.123757	-0.837289	-0.544052	0.522979	-0.818549	0.237636	0.580919	0.546323	0.603377	-0.623720	-0.177506	0.761226
20107	2.338640	5.934520	7.440290	-0.000434	-0.003542	0.004534	-0.126144	-0.844966	-0.542670	0.522979	-0.818530	0.237700	0.580931	0.546374	0.603319	-0.623708	-0.177436	0.761252
20108	2.343870	5.946560	7.480480	-0.002739	-0.006541	0.001390	-0.123699	-0.839710	-0.540808	0.522950	-0.818527	0.237776	0.580956	0.546411	0.603262	-0.623710	-0.177338	0.761274
20109	2.324610	5.909010	7.479310	-0.002177	-0.005882	0.003634	-0.125349	-0.853071	-0.547040	0.522930	-0.818517	0.237852	0.580984	0.546457	0.603193	-0.623700	-0.177239	0.761304
20110	2.325190	5.908760	7.479330	-0.001801	-0.002706	0.004929	-0.131034	-0.841998	-0.542214	0.522908	-0.818525	0.237876	0.581019	0.546465	0.603153	-0.623686	-0.177183	0.761329
20111	2.338240	5.933240	7.500000	-0.002303	-0.008913	0.006376	-0.114172	-0.843724	-0.539288	0.522885	-0.818505	0.237992	0.581033	0.546534	0.603077	-0.623692	-0.177059	0.761353
20112	2.377110	5.929360	7.481730	-0.000007	-0.008214	0.000603	-0.117291	-0.836553	-0.537373	0.522805	-0.818553	0.238005	0.581094	0.546489	0.603059	-0.623703	-0.176978	0.761363
20113	2.325890	5.941460	7.469050	0.002541	-0.007370	-0.001133	-0.123195	-0.842303	-0.542508	0.522748	-0.818572	0.238064	0.581117	0.546488	0.603037	-0.623729	-0.176893	0.761362
20114	2.328000	5.908340	7.478790	-0.003921	-0.008222	0.002734	-0.129233	-0.834275	-0.541721	0.522678	-0.818611	0.238083	0.581219	0.546468	0.602957	-0.623692	-0.176774	0.761419
20115	2.357630	5.924860	7.470300	-0.001306	-0.004713	0.004085	-0.125090	-0.843725	-0.539999	0.522668	-0.818597	0.238153	0.581239	0.546516	0.602894	-0.623682	-0.176690	0.761447
20116	2.358070	5.924810	7.470200	0.001551	-0.003356	0.000555	-0.120933	-0.834462	-0.552088	0.522676	-0.818578	0.238203	0.581204	0.546550	0.602898	-0.623709	-0.176675	0.761428
20117	2.329520	5.908200	7.478420	0.003974	-0.005542	0.001560	-0.110907	-0.833808	-0.538405	0.522646	-0.818579	0.238264	0.581204	0.546568	0.602881	-0.623733	-0.176613	0.761423
20118	2.337490	5.921010	7.458570	0.003789	-0.003023	0.000611	-0.121204	-0.836247	-0.538056	0.522590	-0.818612	0.238273	0.581337	0.546562	0.602758	-0.623656	-0.176478	0.761517
20119	2.316490	5.916970	7.447260	0.002608	-0.004705	0.001955	-0.130977	-0.840343	-0.545978	0.522568	-0.818609	0.238330	0.581344	0.546586	0.602729	-0.623668	-0.176415	0.761522
20120	2.336850	5.954110	7.448390	-0.005473	-0.004866	0.002181	-0.122299	-0.837220	-0.542912	0.522569	-0.818588	0.238403	0.581365	0.546646	0.602654	-0.623648	-0.176329	0.761559
20121	2.317700	5.916240	7.447460	-0.008776	-0.012064	0.001330	-0.121067	-0.835082	-0.538227	0.522497	-0.818602	0.238513	0.581447	0.546685	0.602541	-0.623632	-0.176143	0.761614
20122	2.337070	5.919480	7.518490	-0.008961	-0.009545	0.000382	-0.125369	-0.840559	-0.539216	0.522429	-0.818630	0.238564	0.581565	0.546696	0.602416	-0.623578	-0.175979	0.761697
20123	2.337870	5.918850	7.518740	-0.007033	-0.009725	0.002231	-0.129364	-0.842985	-0.548870	0.522377	-0.818635	0.238661	0.581631	0.546739	0.602314	-0.623560	-0.175822	0.761748
20124	2.338600	5.918350	7.518900	-0.004979	-0.006873	0.001338	-0.123551	-0.838788	-0.549906	0.522346	-0.818632	0.238740	0.581658	0.546777	0.602253	-0.623561	-0.175720	0.761770
20125	2.348350	5.897450	7.509330	-0.002419	-0.003730	0.008518	-0.122155	-0.845893	-0.548425	0.522368	-0.818592	0.238829	0.581662	0.546863	0.602171	-0.623539	-0.175637	0.761808
20126	2.364010	5.922350	7.470270	0.000185	-0.002519	0.000949	-0.122980	-0.848191	-0.537953	0.522321	-0.818611	0.238866	0.581751	0.546874	0.602076	-0.623495	-0.175517	0.761871
20127	2.364270	5.922360	7.470180	0.001620	-0.000692	0.003642	-0.130498	-0.833502	-0.543637	0.522334	-0.818592	0.238903	0.581755	0.546913	0.602036	-0.623481	-0.175481	0.761891
20128	2.335640	5.905520	7.478630	-0.000056	-0.000367	0.005831	-0.133798	-0.840094	-0.543719	0.522363	-0.818567	0.238923	0.581734	0.546948	0.602024	-0.623476	-0.175485	0.761894
20129	2.373870	5.901720	7.460450	0.000563	0.000658	0.002243	-0.131173	-0.842839	-0.547057	0.522376	-0.818554	0.238941	0.581753	0.546978	0.601979	-0.623448	-0.175455	0.761924
20130	2.327040	5.925890	7.488260	-0.001560	-0.004858	0.000050	-0.128916	-0.839798	-0.550426	0.522387	-0.818514	0.239054	0.581692	0.547054	0.601969	-0.623495	-0.175405	0.761897
20131	2.336350	5.905290	7.478590	-0.000309	-0.000512	0.001794	-0.133172	-0.841023	-0.538833	0.522390	-0.818505	0.239078	0.581718	0.547081	0.601919	-0.623468	-0.175360	0.761929
20132	2.373060	5.934560	7.450540	-0.001251	-0.004346	-0.001744	-0.127737	-0.842444	-0.546047	0.522385	-0.818484	0.239159	0.581687	0.547128	0.601906	-0.623501	-0.175312	0.761913
20133	2.320110	5.913090	7.507790	-0.002617	-0.003509	-0.001349	-0.128144	-0.840813	-0.543994	0.522351	-0.818498	0.239187	0.581743	0.547134	0.601846	-0.623477	-0.175230	0.761952
20134	2.336930	5.904880	7.478740	-0.004856	-0.003841	-0.001404	-0.126703	-0.835647	-0.542884	0.522320	-0.818506	0.239226	0.581791	0.547148	0.601787	-0.623459	-0.175146	0.761986
20135	2.328260	5.925070	7.488540	-0.002672	-0.003876	0.004482	-0.118039	-0.838577	-0.537252	0.522318	-0.818489	0.239292	0.581818	0.547202	0.601713	-0.623436	-0.175061	0.762024
20136	2.330210	5.891960	7.498290	0.003480	-0.003536	0.002403	-0.113995	-0.838587	-0.548600	0.522291	-0.818509	0.239282	0.581857	0.547181	0.601694	-0.623422	-0.175032	0.762042
20137	2.342820	5.916920	7.518710	0.003295	-0.001017	0.001454	-0.121599	-0.834205	-0.545007	0.522289	-0.818503	0.239308	0.581862	0.547200	0.601672	-0.623419	-0.175003	0.762051
20138	2.367150	5.921620	7.469850	0.001999	0.002485	0.004936	-0.122118	-0.837150	-0.548851	0.522282	-0.818513	0.239287	0.581984	0.547213	0.601542	-0.623310	-0.174913	0.762161
20139	2.338280	5.904900	7.478290	0.002872	0.003654	0.005386	-0.130610	-0.846427	-0.541256	0.522332	-0.818477	0.239301	0.581972	0.547264	0.601507	-0.623280	-0.174920	0.762184
20140	2.359750	5.909250	7.489190	0.003365	0.001647	0.004542	-0.120013	-0.837798	-0.538000	0.522353	-0.818461	0.239311	0.581968	0.547290	0.601488	-0.623267	-0.174917	0.762196
20141	2.367450	5.921900	7.469540	0.000493	-0.002007	-0.000844	-0.132903	-0.840600	-0.550505	0.522331	-0.818469	0.239331	0.582003	0.547294	0.601450	-0.623252	-0.174865	0.762220
20142	2.315810	5.933800	7.457240	-0.004856	-0.003841	-0.001404	-0.125840	-0.842876	-0.537262	0.522296	-0.818483	0.239359	0.582070	0.547303	0.601377	-0.623219	-0.174773	0.762268
20143	2.325230	5.912970	7.447710	-0.002673	-0.003875	0.004482	-0.127390	-0.839078	-0.549915	0.522294	-0.818465	0.239424	0.582097	0.547356	0.601302	-0.623196	-0.174688	0.762307
20144	2.368280	5.921240	7.469800	-0.002309	-0.002997	-0.003143	-0.124367	-0.838338	-0.543313	0.522244	-0.818499	0.239415	0.582162	0.547323	0.601270	-0.623176	-0.174631	0.762335
20145	2.361070	5.908470	7.489390	-0.004488	-0.008879	0.000496	-0.125729	-0.834379	-0.544107	0.522187	-0.818512	0.239495	0.582221	0.547347	0.601191	-0.623169	-0.174495	0.762373
20146	2.323650	5.911740	7.507760	-0.006841	-0.004028	0.002580	-0.133016	-0.837281	-0.535178	0.522177	-0.818504	0.239545	0.582293	0.547395	0.601077	-0.623110	-0.174383	0.762447
20147	2.362030	5.907580	7.489790	-0.002857	-0.001357	0.003533	-0.131155	-0.837759	-0.549054	0.522185	-0.818487	0.239586	0.582326	0.547441	0.601003	-0.623073	-0.174317	0.762492
20148	2.362400	5.907330	7.489870	-0.000928	-0.001537	0.005382	-0.122274	-0.833751	-0.543438	0.522248	-0.818421	0.239676	0.582241	0.547541	0.600994	-0.623099	-0.174319	0.762470
20149	2.333720	5.890470	7.498360	0.002000	0.002484	0.004936	-0.126594	-0.842218	-0.539160	0.522288	-0.818389	0.239696	0.582236	0.547590	0.600954	-0.623070	-0.174311	0.762496
20150	2.350360	5.882570	7.469100	0.002309	0.002996	0.003143	-0.128444	-0.836378	-0.547971	0.522309	-0.818389	0.239650	0.582264	0.547583	0.600934	-0.623026	-0.174333	0.762526
20151	2.353730	5.927890	7.499390	0.002563	0.003141	0.007180	-0.125286	-0.842943	-0.543942	0.522366	-0.818345	0.239678	0.582244	0.547649	0.600893	-0.622997	-0.174335	0.762550
20152	2.387120	5.912130	7.440800	0.004098	-0.002513	-0.001185	-0.124874	-0.837543	-0.544885	0.522335	-0.818358	0.239700	0.582264	0.547642	0.600879	-0.623004	-0.174292	0.762554
20153	2.341610	5.903610	7.478270	0.002168	-0.002332	-0.003033	-0.129587	-0.837079	-0.546073	0.522299	-0.818379	0.239708	0.582300	0.547626	0.600860	-0.623001	-0.174246	0.762566
20154	2.318920	5.932410	7.457380	-0.002857	-0.001356	0.003533	-0.130454	-0.832189	-0.545624	0.522315	-0.818352	0.239764	0.582325	0.547689	0.600778	-0.622964	-0.174175	0.762613
20155	2.401380	5.903820	7.471180	-0.001112	0.000983	0.004433	-0.130138	-0.833126	-0.543870	0.522343	-0.818326	0.239792	0.582342	0.547739	0.600715	-0.622925	-0.174138	0.762654
20156	2.365000	5.874220	7.499410	-0.005350	-0.001833	-0.000559	-0.128153	-0.843952	-0.542874	0.522374	-0.818280	0.239881	0.582343	0.547833	0.600630	-0.622898	-0.174061	0.762693
20157	2.334780	5.890140	7.498300	-0.004294	-0.003183	0.000841	-0.132034	-0.836988	-0.538933	0.522355	-0.818281	0.239920	0.582398	0.547860	0.600552	-0.622862	-0.173972	0.762743
20158	2.351800	5.881820	7.469250	-0.002603	-0.001211	0.007572	-0.131877	-0.836473	-0.546502	0.522401	-0.818241	0.239957	0.582361	0.547917	0.600535	-0.622859	-0.173979	0.762744
20159	2.343190	5.902000	7.479050	-0.002857	-0.001356	0.003534	-0.126213	-0.843581	-0.541074	0.522409	-0.818224	0.239998	0.582393	0.547963	0.600462	-0.622822	-0.173914	0.762789
20160	2.386180	5.910060	7.501290	-0.004716	0.001488	0.004774	-0.130477	-0.840872	-0.539237	0.522447	-0.818195	0.240012	0.582408	0.548012	0.600403	-0.622776	-0.173893	0.762831
20161	2.381480	5.897580	7.461290	-0.001366	0.000838	0.000395	-0.124055	-0.838744	-0.539472	0.522450	-0.818192	0.240017	0.582447	0.548030	0.600348	-0.622737	-0.173854	0.762872
20162	2.364920	5.905470	7.490540	-0.001817	-0.005003	-0.003987	-0.128344	-0.837807	-0.544397	0.522389	-0.818244	0.239972	0.582506	0.547958	0.600357	-0.622733	-0.173835	0.762879
20163	2.343700	5.901040	7.479640	-0.006294	-0.005666	-0.004096	-0.130371	-0.845301	-0.548400	0.522326	-0.818276	0.240000	0.582599	0.547948	0.600276	-0.622699	-0.173716	0.762934
20164	2.365260	5.904860	7.490920	-0.006224	-0.003002	-0.001007	-0.131112	-0.834193	-0.542205	0.522294	-0.818289	0.240025	0.582664	0.547956	0.600206	-0.622666	-0.173630	0.762981
20165	2.357950	5.891800	7.510750	-0.007406	-0.004684	0.000338	-0.126831	-0.835332	-0.539100	0.522262	-0.818296	0.240072	0.582741	0.547983	0.600106	-0.622620	-0.173513	0.763045
20166	2.374760	5.883260	7.481950	-0.008083	-0.000158	0.000233	-0.132792	-0.838433	-0.543048	0.522284	-0.818281	0.240075	0.582782	0.548017	0.600036	-0.622563	-0.173478	0.763100
20167	2.358460	5.890590	7.511550	-0.007152	-0.004540	0.004376	-0.121164	-0.838084	-0.546424	0.522277	-0.818265	0.240145	0.582836	0.548077	0.599928	-0.622517	-0.173364	0.763162
20168	2.357260	5.923330	7.501880	-0.000564	-0.000657	-0.002244	-0.127056	-0.839758	-0.545210	0.522253	-0.818286	0.240124	0.582895	0.548056	0.599891	-0.622484	-0.173328	0.763198
20169	2.349830	5.910610	7.521490	-0.003730	-0.002526	0.003085	-0.130288	-0.836953	-0.542641	0.522251	-0.818274	0.240171	0.582934	0.548099	0.599812	-0.622448	-0.173249	0.763245
20170	2.346870	5.864950	7.491330	-0.003588	0.002800	0.009263	-0.129747	-0.842601	-0.539614	0.522324	-0.818219	0.240199	0.582927	0.548183	0.599743	-0.622394	-0.173242	0.763291
20171	2.358000	5.922350	7.502420	-0.002477	0.001819	0.004829	-0.127448	-0.836775	-0.546200	0.522359	-0.818190	0.240223	0.582950	0.548239	0.599670	-0.622343	-0.173205	0.763341
20172	2.367100	5.901550	7.492940	-0.003605	0.000506	0.000342	-0.128566	-0.838173	-0.547803	0.522360	-0.818197	0.240193	0.582993	0.548230	0.599636	-0.622302	-0.173196	0.763377
20173	2.347240	5.864000	7.491960	-0.003985	-0.002670	-0.000953	-0.131480	-0.832767	-0.547086	0.522334	-0.818207	0.240216	0.583055	0.548241	0.599565	-0.622265	-0.173114	0.763425
20174	2.353700	5.909080	7.462930	-0.009956	-0.005528	0.002079	-0.125123	-0.829739	-0.549133	0.522325	-0.818182	0.240322	0.583111	0.548326	0.599433	-0.622220	-0.172964	0.763496
20175	2.346810	5.895700	7.482880	-0.010646	-0.009217	0.002579	-0.125721	-0.828892	-0.544472	0.522279	-0.818184	0.240417	0.583197	0.548378	0.599303	-0.622179	-0.172793	0.763568
20176	2.347670	5.894640	7.483440	-0.015053	-0.007217	0.005562	-0.127057	-0.839998	-0.548551	0.522275	-0.818148	0.240547	0.583314	0.548503	0.599074	-0.622071	-0.172567	0.763707
20177	2.401760	5.848150	7.506340	-0.014910	-0.001892	0.011742	-0.132099	-0.843780	-0.545650	0.522328	-0.818086	0.240641	0.583378	0.548636	0.598889	-0.621967	-0.172432	0.763822
20178	2.370560	5.896440	7.495870	-0.007574	0.000129	0.008314	-0.125723	-0.834166	-0.554271	0.522363	-0.818053	0.240677	0.583414	0.548705	0.598792	-0.621904	-0.172373	0.763887
20179	2.372380	5.862670	7.506110	-0.006391	0.001811	0.006969	-0.132189	-0.840338	-0.545577	0.522411	-0.818012	0.240714	0.583450	0.548784	0.598684	-0.621830	-0.172315	0.763960
20180	2.393990	5.866310	7.517480	-0.004716	0.001486	0.004778	-0.132904	-0.832390	-0.547244	0.522442	-0.817977	0.240764	0.583493	0.548861	0.598571	-0.621764	-0.172235	0.764032
20181	2.363750	5.882270	7.516400	-0.002549	-0.000844	0.001741	-0.130644	-0.837242	-0.544082	0.522443	-0.817969	0.240790	0.583532	0.548892	0.598505	-0.621726	-0.172176	0.764076
20182	2.371360	5.894580	7.497080	-0.004170	-0.000149	-0.001901	-0.125217	-0.835543	-0.544032	0.522452	-0.817956	0.240817	0.583552	0.548924	0.598456	-0.621700	-0.172135	0.764106
20183	2.358950	5.869560	7.476630	-0.005917	-0.002486	-0.002800	-0.126763	-0.837260	-0.546839	0.522416	-0.817975	0.240828	0.583636	0.548924	0.598375	-0.621652	-0.172045	0.764166
20184	2.354820	5.901670	7.526950	-0.008394	-0.000669	0.002032	-0.132869	-0.833612	-0.545945	0.522410	-0.817983	0.240813	0.583743	0.548937	0.598257	-0.621555	-0.171962	0.764263
20185	2.350360	5.888760	7.487230	-0.012835	-0.009175	-0.003305	-0.134559	-0.834016	-0.550486	0.522330	-0.818017	0.240872	0.583873	0.548944	0.598124	-0.621501	-0.171779	0.764348
20186	2.379940	5.904520	7.479320	-0.014820	-0.009365	0.000681	-0.129749	-0.836821	-0.553028	0.522304	-0.817989	0.241025	0.583926	0.549047	0.597978	-0.621473	-0.171586	0.764414
20187	2.360720	5.865970	7.478890	-0.019865	-0.010682	-0.001666	-0.135088	-0.828181	-0.545226	0.522223	-0.818016	0.241106	0.584091	0.549079	0.597788	-0.621386	-0.171351	0.764538
20188	2.378500	5.901410	7.540720	-0.018755	-0.011660	-0.006100	-0.134670	-0.829851	-0.551416	0.522137	-0.818034	0.241233	0.584224	0.549131	0.597610	-0.621334	-0.171100	0.764637
20189	2.392280	5.847020	7.481870	-0.019630	-0.012829	-0.006547	-0.137510	-0.834264	-0.549556	0.522015	-0.818092	0.241301	0.584412	0.549123	0.597433	-0.621259	-0.170849	0.764754
20190	2.345830	5.869810	7.510780	-0.022364	-0.011155	-0.005750	-0.125162	-0.836437	-0.549236	0.521949	-0.818084	0.241468	0.584522	0.549216	0.597240	-0.621211	-0.170586	0.764851
20191	2.344960	5.901250	7.502120	-0.023475	-0.010178	-0.001311	-0.134147	-0.838584	-0.542196	0.521874	-0.818109	0.241548	0.584707	0.549258	0.597021	-0.621100	-0.170336	0.764997
20192	2.377570	5.850150	7.514230	-0.021471	-0.007702	0.003628	-0.129272	-0.837375	-0.548145	0.521849	-0.818109	0.241600	0.584844	0.549311	0.596837	-0.620991	-0.170160	0.765124
20193	2.378420	5.848600	7.515170	-0.015860	-0.005732	0.008218	-0.134013	-0.835107	-0.550855	0.521858	-0.818073	0.241703	0.584932	0.549418	0.596653	-0.620902	-0.169988	0.765235
20194	2.399030	5.884490	7.517280	-0.016227	-0.000690	0.006326	-0.128518	-0.830993	-0.551760	0.521895	-0.818030	0.241769	0.585010	0.549521	0.596482	-0.620798	-0.169864	0.765347
20195	2.400830	5.850180	7.527860	-0.013752	-0.002503	0.001491	-0.137612	-0.833236	-0.542755	0.521884	-0.818026	0.241807	0.585119	0.549568	0.596331	-0.620703	-0.169729	0.765454
20196	2.387280	5.857690	7.498010	-0.010146	-0.003009	0.001144	-0.136633	-0.838473	-0.554670	0.521897	-0.817997	0.241877	0.585154	0.549640	0.596231	-0.620660	-0.169636	0.765509
20197	2.370930	5.864680	7.527870	-0.012004	-0.000166	0.002391	-0.129407	-0.829817	-0.550155	0.521906	-0.817984	0.241902	0.585248	0.549692	0.596090	-0.620564	-0.169530	0.765611
20198	2.370990	5.863670	7.528650	-0.012987	0.003845	0.004089	-0.131306	-0.836215	-0.555694	0.521959	-0.817933	0.241960	0.585309	0.549799	0.595932	-0.620462	-0.169431	0.765716
20199	2.384790	5.854530	7.559680	-0.002093	0.004985	0.006135	-0.121594	-0.832449	-0.546265	0.522021	-0.817891	0.241968	0.585322	0.549865	0.595858	-0.620397	-0.169422	0.765770
20200	2.378490	5.875050	7.510140	-0.009381	0.003339	0.003740	-0.128082	-0.830263	-0.551528	0.522042	-0.817882	0.241951	0.585444	0.549904	0.595702	-0.620264	-0.169333	0.765898
20201	2.349360	5.857530	7.519260	-0.008763	0.004371	0.000152	-0.127571	-0.826407	-0.547461	0.522066	-0.817874	0.241928	0.585530	0.549933	0.595591	-0.620163	-0.169282	0.765991
20202	2.350590	5.823700	7.529610	-0.008433	0.007165	0.007284	-0.125689	-0.831367	-0.547317	0.522152	-0.817815	0.241941	0.585594	0.550037	0.595431	-0.620029	-0.169227	0.766111
20203	2.379330	5.839740	7.521770	-0.007250	0.008849	0.005940	-0.130418	-0.837615	-0.555665	0.522238	-0.817767	0.241918	0.585641	0.550110	0.595318	-0.619914	-0.169221	0.766206
20204	2.378850	5.839060	7.522450	-0.007998	0.010718	0.002751	-0.134538	-0.834700	-0.556184	0.522304	-0.817745	0.241849	0.585740	0.550147	0.595187	-0.619764	-0.169208	0.766330
20205	2.356830	5.834170	7.512210	-0.008799	0.012208	0.005396	-0.131488	-0.833165	-0.545675	0.522407	-0.817695	0.241798	0.585798	0.550218	0.595063	-0.619621	-0.169221	0.766442
20206	2.338260	5.874480	7.532430	-0.004627	0.012353	0.007292	-0.130838	-0.842298	-0.548361	0.522538	-0.817615	0.241784	0.585784	0.550321	0.594982	-0.619525	-0.169267	0.766510
20207	2.355860	5.832660	7.513690	-0.013027	0.011682	0.009335	-0.128346	-0.832770	-0.545531	0.522661	-0.817544	0.241760	0.585848	0.550432	0.594816	-0.619361	-0.169253	0.766646
20208	2.367960	5.856340	7.535300	-0.006687	0.009501	0.008188	-0.128573	-0.837445	-0.543888	0.522769	-0.817497	0.241682	0.585877	0.550481	0.594742	-0.619242	-0.169317	0.766728
20209	2.355340	5.830910	7.515210	-0.010368	0.007351	0.005443	-0.119698	-0.833767	-0.548903	0.522843	-0.817455	0.241668	0.585945	0.550556	0.594607	-0.619115	-0.169282	0.766837
20210	2.351080	5.862290	7.566110	-0.012593	0.009295	0.014322	-0.126438	-0.827442	-0.552857	0.522968	-0.817399	0.241586	0.586043	0.550635	0.594436	-0.618917	-0.169291	0.766995
20211	2.355420	5.828500	7.517050	-0.012521	0.011952	0.017420	-0.140114	-0.834365	-0.551957	0.523140	-0.817283	0.241607	0.586062	0.550811	0.594255	-0.618754	-0.169282	0.767129
20212	2.405810	5.848020	7.520700	-0.013579	0.013306	0.016028	-0.134924	-0.831196	-0.551203	0.523327	-0.817147	0.241661	0.586056	0.551018	0.594069	-0.618601	-0.169266	0.767256
20213	2.369080	5.817350	7.549630	-0.012539	0.009678	0.008492	-0.136132	-0.829364	-0.555075	0.523433	-0.817083	0.241647	0.586121	0.551120	0.593909	-0.618450	-0.169238	0.767384
20214	2.406750	5.812500	7.532400	-0.013667	0.008377	0.004002	-0.132127	-0.837104	-0.562860	0.523527	-0.817010	0.241690	0.586154	0.551246	0.593760	-0.618339	-0.169182	0.767486
20215	2.359370	5.835710	7.561270	-0.011570	0.003395	-0.002141	-0.132789	-0.828870	-0.556026	0.523531	-0.817016	0.241661	0.586269	0.551260	0.593634	-0.618226	-0.169107	0.767593
20216	2.345140	5.843320	7.531620	-0.013429	0.006238	-0.000888	-0.136463	-0.824471	-0.548619	0.523546	-0.816997	0.241692	0.586393	0.551330	0.593447	-0.618097	-0.168970	0.767728
20217	2.417600	5.834460	7.555740	-0.008324	0.007932	-0.004375	-0.138978	-0.827509	-0.549900	0.523565	-0.817008	0.241615	0.586499	0.551320	0.593351	-0.617979	-0.168950	0.767826
20218	2.371080	5.825150	7.593980	-0.005843	0.006124	-0.009215	-0.131918	-0.829844	-0.551509	0.523598	-0.816990	0.241605	0.586503	0.551343	0.593325	-0.617948	-0.168962	0.767849
20219	2.363840	5.846140	7.544500	-0.004095	0.008458	-0.008312	-0.139140	-0.830232	-0.549747	0.523597	-0.817021	0.241501	0.586603	0.551295	0.593271	-0.617853	-0.168970	0.767924
20220	2.363990	5.812880	7.554660	-0.004205	0.013635	-0.006155	-0.123977	-0.833017	-0.546978	0.523676	-0.816996	0.241414	0.586618	0.551307	0.593246	-0.617773	-0.169051	0.767971
20221	2.356360	5.834000	7.505230	-0.001653	0.014483	-0.007897	-0.128767	-0.825785	-0.546265	0.523715	-0.817015	0.241267	0.586701	0.551258	0.593209	-0.617661	-0.169121	0.768045
20222	2.382310	5.816940	7.566720	-0.004459	0.013502	-0.010193	-0.127634	-0.830703	-0.548901	0.523749	-0.817057	0.241049	0.586833	0.551167	0.593163	-0.617506	-0.169214	0.768149
20223	2.337870	5.808470	7.545320	-0.006250	0.018999	-0.005841	-0.137498	-0.827652	-0.553851	0.523828	-0.817057	0.240878	0.586933	0.551142	0.593087	-0.617344	-0.169296	0.768261
20224	2.349930	5.799460	7.576720	-0.008734	0.020806	-0.000999	-0.131634	-0.829232	-0.555201	0.523969	-0.817004	0.240753	0.586982	0.551191	0.592993	-0.617178	-0.169392	0.768373
20225	2.372590	5.803880	7.528870	-0.002322	0.021279	0.000953	-0.129878	-0.830389	-0.555139	0.524101	-0.816962	0.240606	0.587023	0.551215	0.592930	-0.617027	-0.169514	0.768468
20226	2.352860	5.844710	7.549050	-0.000263	0.024132	0.000066	-0.129854	-0.836539	-0.556332	0.524245	-0.816909	0.240470	0.587050	0.551254	0.592867	-0.616878	-0.169640	0.768559
20227	2.308410	5.836210	7.527620	-0.003556	0.027425	0.007556	-0.137649	-0.826532	-0.550957	0.524455	-0.816821	0.240314	0.587064	0.551335	0.592778	-0.616687	-0.169806	0.768676
20228	2.373940	5.848820	7.501970	-0.005685	0.021918	0.005346	-0.129229	-0.823988	-0.566399	0.524637	-0.816729	0.240228	0.587051	0.551434	0.592699	-0.616545	-0.169926	0.768764
20229	2.351310	5.843990	7.491840	-0.012612	0.012964	-0.004112	-0.136724	-0.834599	-0.555222	0.524689	-0.816729	0.240115	0.587182	0.551434	0.592569	-0.616376	-0.169924	0.768900
20230	2.350270	5.842800	7.493090	-0.021398	0.009121	-0.003383	-0.131376	-0.830843	-0.563886	0.524702	-0.816714	0.240138	0.587351	0.551510	0.592331	-0.616203	-0.169752	0.769076
20231	2.354100	5.852950	7.535040	-0.028124	0.008130	-0.003540	-0.127577	-0.824599	-0.556489	0.524728	-0.816719	0.240065	0.587574	0.551541	0.592080	-0.615969	-0.169625	0.769292
20232	2.362200	5.830490	7.527090	-0.028375	0.007999	-0.007577	-0.134553	-0.835277	-0.551325	0.524699	-0.816744	0.240041	0.587846	0.551573	0.591781	-0.615734	-0.169400	0.769529
20233	2.294030	5.815230	7.555530	-0.033043	0.009860	-0.008617	-0.131549	-0.828468	-0.559179	0.524705	-0.816774	0.239925	0.588126	0.551571	0.591504	-0.615462	-0.169259	0.769778
20234	2.328040	5.808550	7.599170	-0.029499	0.008965	-0.003129	-0.135861	-0.828488	-0.564223	0.524757	-0.816755	0.239878	0.588308	0.551634	0.591264	-0.615243	-0.169147	0.769977
20235	2.343860	5.798610	7.571880	-0.028001	0.013432	0.002678	-0.132304	-0.830500	-0.556872	0.524851	-0.816717	0.239802	0.588497	0.551716	0.590999	-0.614982	-0.169064	0.770204
20236	2.342880	5.796430	7.573860	-0.028185	0.015954	0.001745	-0.126381	-0.836985	-0.553467	0.524952	-0.816656	0.239789	0.588654	0.551842	0.590725	-0.614745	-0.168950	0.770419
20237	2.328030	5.802860	7.545370	-0.028748	0.015307	-0.000498	-0.133649	-0.838383	-0.551237	0.525039	-0.816632	0.239679	0.588865	0.551899	0.590462	-0.614469	-0.168877	0.770655
20238	2.322420	5.788800	7.507040	-0.029754	0.011097	0.001779	-0.132736	-0.827094	-0.557303	0.525149	-0.816601	0.239544	0.589039	0.551949	0.590242	-0.614208	-0.168864	0.770865
20239	2.319180	5.852430	7.490130	-0.041231	0.001100	-0.001960	-0.133747	-0.827165	-0.561924	0.525140	-0.816609	0.239535	0.589334	0.552015	0.589886	-0.613933	-0.168606	0.771141
20240	2.265910	5.827290	7.549550	-0.046100	-0.000477	0.005567	-0.131762	-0.824469	-0.558024	0.525167	-0.816556	0.239659	0.589580	0.552197	0.589469	-0.613673	-0.168272	0.771421
20241	2.355990	5.807640	7.546670	-0.048715	0.006493	0.012592	-0.129108	-0.827741	-0.559032	0.525277	-0.816475	0.239694	0.589844	0.552394	0.589020	-0.613326	-0.168017	0.771752
20242	2.407850	5.791340	7.562130	-0.052645	0.004226	0.005807	-0.132742	-0.831962	-0.559862	0.525332	-0.816425	0.239745	0.590156	0.552566	0.588547	-0.612979	-0.167695	0.772098
20243	2.422670	5.745450	7.605290	-0.056639	-0.002934	-0.013024	-0.125183	-0.827136	-0.560745	0.525233	-0.816501	0.239702	0.590602	0.552567	0.588097	-0.612634	-0.167319	0.772453
20244	2.330940	5.790760	7.604520	-0.054412	-0.015314	-0.030290	-0.125142	-0.826205	-0.555886	0.524948	-0.816697	0.239658	0.591136	0.552423	0.587696	-0.612362	-0.166840	0.772772
20245	2.346990	5.779790	7.578020	-0.057173	-0.026348	-0.046793	-0.127605	-0.824346	-0.561412	0.524506	-0.816998	0.239598	0.591763	0.552149	0.587323	-0.612136	-0.166269	0.773074
20246	2.316020	5.792770	7.579530	-0.057746	-0.024751	-0.040080	-0.133857	-0.823492	-0.559577	0.524107	-0.817267	0.239554	0.592382	0.551924	0.586910	-0.611878	-0.165696	0.773402
20247	2.339560	5.726700	7.612570	-0.063228	-0.010957	-0.030043	-0.123181	-0.828778	-0.566281	0.523858	-0.817450	0.239474	0.592957	0.551795	0.586450	-0.611534	-0.165218	0.773776
20248	2.423470	5.739450	7.660180	-0.049632	0.002304	-0.032997	-0.125804	-0.822532	-0.554367	0.523659	-0.817629	0.239300	0.593476	0.551629	0.586082	-0.611202	-0.164888	0.774108
20249	2.399560	5.732730	7.651840	-0.042338	0.009927	-0.040068	-0.126244	-0.825082	-0.566747	0.523477	-0.817833	0.239000	0.593975	0.551384	0.585806	-0.610872	-0.164697	0.774409
20250	2.350630	5.721480	7.691710	-0.031867	0.013476	-0.042989	-0.131718	-0.827508	-0.563715	0.523297	-0.818050	0.238650	0.594443	0.551096	0.585603	-0.610572	-0.164580	0.774671
20251	2.361910	5.746120	7.655080	-0.022578	0.023554	-0.045110	-0.123480	-0.826473	-0.565048	0.523168	-0.818259	0.238215	0.594847	0.550777	0.585492	-0.610288	-0.164609	0.774889
20252	2.360350	5.746840	7.597180	-0.019653	0.027581	-0.045521	-0.119363	-0.822633	-0.563398	0.523054	-0.818464	0.237764	0.595240	0.550456	0.585396	-0.610003	-0.164667	0.775100
20253	2.325020	5.762650	7.597820	-0.018913	0.033913	-0.042869	-0.125371	-0.821236	-0.562624	0.523002	-0.818643	0.237261	0.595610	0.550149	0.585307	-0.609687	-0.164801	0.775321
20254	2.318240	5.795020	7.590720	-0.029651	0.038457	-0.044493	-0.130803	-0.825239	-0.561050	0.522945	-0.818837	0.236714	0.596100	0.549839	0.585100	-0.609256	-0.164870	0.775645
20255	2.291600	5.789720	7.582090	-0.030464	0.029483	-0.050228	-0.127700	-0.821883	-0.561645	0.522821	-0.819064	0.236203	0.596579	0.549491	0.584939	-0.608894	-0.164905	0.775922
20256	2.229190	5.753860	7.601080	-0.047736	0.014049	-0.050022	-0.113887	-0.832271	-0.567941	0.522635	-0.819285	0.235849	0.597097	0.549210	0.584674	-0.608545	-0.164747	0.776229
20257	2.272180	5.727530	7.576360	-0.050640	0.031317	-0.038594	-0.125738	-0.822982	-0.558377	0.522591	-0.819444	0.235392	0.597637	0.548990	0.584329	-0.608053	-0.164686	0.776628
20258	2.293420	5.740010	7.631750	-0.049184	0.048422	-0.015426	-0.122760	-0.827074	-0.567240	0.522787	-0.819466	0.234881	0.598088	0.548926	0.583927	-0.607441	-0.164790	0.777084
20259	2.354280	5.672070	7.588050	-0.056962	0.061842	-0.005407	-0.120760	-0.823971	-0.571548	0.523126	-0.819393	0.234380	0.598493	0.548988	0.583454	-0.606750	-0.164945	0.777591
20260	2.328730	5.785380	7.694120	-0.046744	0.065307	-0.012328	-0.128598	-0.819960	-0.567200	0.523414	-0.819366	0.233829	0.598907	0.548972	0.583044	-0.606093	-0.165132	0.778064
20261	2.313910	5.759240	7.617430	-0.047250	0.065089	-0.020365	-0.118623	-0.831858	-0.565577	0.523682	-0.819370	0.233216	0.599330	0.548896	0.582681	-0.605442	-0.165366	0.778520
20262	2.299970	5.743090	7.640960	-0.053221	0.057760	-0.035192	-0.123652	-0.822324	-0.569182	0.523828	-0.819459	0.232575	0.599847	0.548715	0.582319	-0.604804	-0.165526	0.778982
20263	2.250830	5.731540	7.622910	-0.056842	0.056040	-0.043736	-0.119686	-0.822540	-0.563963	0.523901	-0.819605	0.231895	0.600450	0.548464	0.581934	-0.604142	-0.165634	0.779473
20264	2.278910	5.723250	7.669320	-0.061303	0.057994	-0.040692	-0.120907	-0.813375	-0.564313	0.524011	-0.819724	0.231226	0.601049	0.548255	0.581513	-0.603451	-0.165741	0.779986
20265	2.315990	5.694770	7.705760	-0.054462	0.062069	-0.043201	-0.124564	-0.828008	-0.572462	0.524121	-0.819857	0.230503	0.601634	0.548004	0.581144	-0.602771	-0.165912	0.780475
20266	2.291530	5.699210	7.739260	-0.045976	0.063219	-0.051018	-0.117139	-0.821654	-0.564266	0.524202	-0.820013	0.229764	0.602171	0.547702	0.580872	-0.602165	-0.166137	0.780894
20267	2.319670	5.659460	7.793940	-0.030899	0.070552	-0.056464	-0.119755	-0.817274	-0.568270	0.524282	-0.820204	0.228897	0.602683	0.547303	0.580717	-0.601582	-0.166507	0.781264
20268	2.416090	5.612180	7.931260	-0.003419	0.076467	-0.074996	-0.118187	-0.828070	-0.566369	0.524308	-0.820472	0.227874	0.603104	0.546720	0.580829	-0.601138	-0.167102	0.781480
20269	2.692620	5.525570	8.265960	0.056867	0.098386	-0.111939	-0.113923	-0.818797	-0.563639	0.524220	-0.820918	0.226467	0.603379	0.545719	0.581484	-0.600938	-0.168181	0.781402
20270	2.943130	5.459460	8.316920	0.157095	0.123069	-0.195034	-0.110798	-0.823401	-0.567486	0.523828	-0.821751	0.224343	0.603452	0.543872	0.583136	-0.601207	-0.170083	0.780783
20271	2.941080	5.702560	8.185950	0.252320	0.095359	-0.347650	-0.106067	-0.832598	-0.566601	0.522299	-0.823472	0.221579	0.603783	0.540594	0.585837	-0.602204	-0.172196	0.779550
20272	2.892710	5.917800	7.665320	0.302802	0.018851	-0.534268	-0.103857	-0.826337	-0.553648	0.519192	-0.826318	0.218261	0.604789	0.535662	0.589318	-0.603879	-0.173967	0.777860
20273	2.672380	6.018220	7.705820	0.319828	-0.070032	-0.681872	-0.092205	-0.836668	-0.559020	0.514635	-0.830071	0.214785	0.606410	0.529470	0.593236	-0.606150	-0.175052	0.775847
20274	2.178510	5.957660	7.316500	0.284407	-0.097019	-0.760802	-0.091963	-0.825408	-0.565834	0.509474	-0.834234	0.210926	0.608613	0.522636	0.597028	-0.608299	-0.175798	0.773995
20275	1.874440	5.829860	7.549340	0.277999	-0.060052	-0.701589	-0.086976	-0.838602	-0.552290	0.504827	-0.837984	0.207200	0.610508	0.516293	0.600601	-0.610270	-0.176702	0.772235
20276	2.511670	5.923360	6.623760	0.268975	-0.060213	-0.605150	-0.073256	-0.835529	-0.551574	0.500735	-0.841207	0.204047	0.611962	0.510748	0.603854	-0.612183	-0.177501	0.770536
20277	-0.750985	5.314920	8.799880	0.207429	0.112062	-0.462160	-0.079166	-0.844339	-0.548056	0.498586	-0.843357	0.200399	0.613032	0.506499	0.606342	-0.612865	-0.179463	0.769538
20278	2.630760	6.125600	6.982120	0.234209	0.155642	-0.245177	-0.082040	-0.845853	-0.545086	0.498065	-0.844316	0.197641	0.612877	0.503997	0.608579	-0.613444	-0.181983	0.768485
20279	0.406933	5.321580	8.647700	0.262365	0.247900	-0.044144	-0.076440	-0.851063	-0.548322	0.499312	-0.844082	0.195479	0.611518	0.503156	0.610638	-0.613786	-0.185360	0.767404
20280	2.136350	5.542140	7.670840	0.287038	0.377958	0.064999	-0.063841	-0.849959	-0.545385	0.502116	-0.843001	0.192949	0.609380	0.503208	0.612729	-0.613625	-0.190082	0.766377
20281	1.715010	5.568490	8.433200	0.371973	0.455271	0.158876	-0.072627	-0.851687	-0.536307	0.505871	-0.841322	0.190450	0.606328	0.503843	0.615230	-0.613564	-0.195752	0.764997
20282	1.791610	5.683530	8.028380	0.392570	0.549626	0.213608	-0.076542	-0.854253	-0.535208	0.510605	-0.839130	0.187464	0.602867	0.504857	0.617795	-0.613053	-0.202433	0.763666
20283	1.986050	5.746140	8.003100	0.439465	0.623092	0.275362	-0.065829	-0.849682	-0.527804	0.516074	-0.836454	0.184426	0.598791	0.506273	0.620594	-0.612468	-0.209839	0.762135
20284	1.998780	5.753450	7.965100	0.450336	0.705690	0.303294	-0.069067	-0.856213	-0.534026	0.522323	-0.833345	0.180870	0.594416	0.507887	0.623475	-0.611431	-0.218144	0.760635
20285	2.767330	5.664940	7.960050	0.477129	0.687799	0.282716	-0.058794	-0.862066	-0.526294	0.528197	-0.830379	0.177422	0.590046	0.509194	0.626552	-0.610617	-0.226256	0.758917
20286	3.978630	5.092080	8.120740	0.459854	0.615005	0.173824	-0.061214	-0.864308	-0.523837	0.533030	-0.828059	0.173772	0.586356	0.509587	0.629689	-0.609971	-0.233751	0.757163
20287	5.671320	3.413430	8.821570	0.411630	0.487234	0.046029	-0.057176	-0.857646	-0.518957	0.536268	-0.826671	0.170388	0.583630	0.509009	0.632681	-0.609748	-0.239843	0.755436
20288	8.225700	1.620600	9.623410	0.357593	0.298051	0.007638	-0.049244	-0.868933	-0.516259	0.538194	-0.825886	0.168104	0.581454	0.508222	0.635313	-0.610130	-0.244177	0.753737
20289	11.085300	0.808425	9.441330	0.293041	0.224422	0.140088	-0.055342	-0.872819	-0.516128	0.540373	-0.824623	0.167316	0.578940	0.508674	0.637243	-0.610594	-0.247483	0.752281
20290	11.497500	1.614210	10.669900	0.174472	0.250367	0.470188	-0.053838	-0.871025	-0.507863	0.544684	-0.821581	0.168296	0.575410	0.512108	0.637690	-0.610100	-0.250500	0.751683
20291	9.055470	-0.111974	10.608800	0.002223	0.276863	0.779671	-0.058851	-0.881709	-0.491994	0.550838	-0.816867	0.171191	0.571157	0.518507	0.636342	-0.608570	-0.252745	0.752172
20292	8.191900	1.023360	10.534200	-0.019198	0.232777	0.891319	-0.070193	-0.881309	-0.499576	0.557545	-0.811529	0.174828	0.566348	0.525818	0.634638	-0.606955	-0.254825	0.752775
20293	6.874230	0.300054	9.787670	-0.060291	0.225223	0.941815	-0.070211	-0.890685	-0.494277	0.564218	-0.805964	0.179108	0.561461	0.533606	0.632476	-0.605326	-0.256292	0.753588
20294	6.271500	0.801011	11.073300	-0.199511	0.179491	0.985345	-0.088500	-0.893273	-0.492326	0.571125	-0.800062	0.183623	0.557031	0.542047	0.629207	-0.602937	-0.257073	0.755236
20295	5.558300	0.949078	10.526300	-0.226045	0.157521	1.027070	-0.086567	-0.903059	-0.485567	0.577770	-0.794044	0.188883	0.552521	0.550832	0.625544	-0.600752	-0.257058	0.756980
20296	5.648340	1.004950	10.947500	-0.289586	0.190412	1.091460	-0.091916	-0.908015	-0.480331	0.585273	-0.787291	0.193982	0.547790	0.560305	0.621276	-0.597814	-0.257355	0.759202
20297	5.157400	1.259330	10.968100	-0.363957	0.204302	1.168550	-0.099747	-0.909901	-0.486014	0.592864	-0.780158	0.199665	0.543106	0.570416	0.616166	-0.594599	-0.256863	0.761888
20298	4.378770	1.744320	11.165800	-0.432932	0.206086	1.199530	-0.109255	-0.920160	-0.489400	0.600790	-0.772544	0.205492	0.538430	0.581060	0.610297	-0.590885	-0.256017	0.765056
20299	3.485480	1.998070	11.124200	-0.521847	0.140761	1.140880	-0.130305	-0.925089	-0.483887	0.607739	-0.765497	0.211346	0.534639	0.591181	0.603876	-0.587209	-0.254005	0.768549
20300	2.894440	2.316070	11.168500	-0.628406	0.004712	1.015490	-0.135558	-0.931483	-0.491669	0.613519	-0.759149	0.217457	0.531942	0.600822	0.596700	-0.583637	-0.250412	0.772439
20301	2.755900	2.587100	11.132700	-0.730660	-0.122087	0.880558	-0.142136	-0.936832	-0.493856	0.617487	-0.754122	0.223631	0.530803	0.609312	0.589056	-0.580481	-0.245031	0.776532
20302	3.014000	2.837090	10.950000	-0.809195	-0.187833	0.811321	-0.151030	-0.943412	-0.496303	0.620927	-0.749401	0.229888	0.530378	0.617603	0.580746	-0.577191	-0.238674	0.780952
20303	3.161740	3.107000	10.536000	-0.866436	-0.193786	0.814729	-0.164500	-0.947183	-0.510390	0.624132	-0.744790	0.236108	0.530320	0.625744	0.572018	-0.573777	-0.231802	0.785524
20304	2.721620	3.399250	10.296600	-0.915017	-0.176954	0.839697	-0.170799	-0.955064	-0.510955	0.627819	-0.739681	0.242311	0.530191	0.634317	0.562618	-0.569860	-0.224751	0.790409
20305	2.186530	3.777660	10.125900	-0.963710	-0.181322	0.834839	-0.176499	-0.961590	-0.521874	0.631217	-0.734749	0.248412	0.530435	0.642618	0.552884	-0.565865	-0.217224	0.795368
20306	1.745370	4.272390	9.668570	-1.008160	-0.195777	0.809005	-0.193352	-0.961317	-0.531403	0.634672	-0.729692	0.254444	0.530875	0.650955	0.542614	-0.561572	-0.209303	0.800518
20307	1.558120	4.850340	9.377150	-1.024430	-0.198358	0.780888	-0.199689	-0.975167	-0.543752	0.637711	-0.724982	0.260241	0.531665	0.658752	0.532333	-0.557366	-0.201113	0.805541
20308	1.702070	5.263950	9.332650	-1.030340	-0.185386	0.768737	-0.207064	-0.978152	-0.552401	0.641048	-0.719997	0.265823	0.532332	0.666604	0.521786	-0.552883	-0.192984	0.810603
20309	1.737470	5.558310	8.827150	-1.032600	-0.162689	0.778434	-0.219048	-0.988037	-0.565888	0.644300	-0.715083	0.271173	0.533041	0.674156	0.511255	-0.548402	-0.184855	0.815527
20310	1.429470	5.993580	8.477420	-1.026700	-0.155833	0.771903	-0.233001	-0.996378	-0.581931	0.647845	-0.709867	0.276379	0.533512	0.681779	0.500542	-0.543747	-0.176822	0.820410
20311	0.914077	6.293300	8.305310	-1.012050	-0.166676	0.726088	-0.233134	-0.998224	-0.596158	0.650820	-0.705176	0.281353	0.534304	0.688678	0.490145	-0.539400	-0.168668	0.824984
20312	-0.336977	6.407260	7.993840	-1.022260	-0.183782	0.637449	-0.241081	-1.007892	-0.605137	0.653520	-0.700803	0.285985	0.535483	0.695102	0.479679	-0.534949	-0.160340	0.829531
20313	0.564683	6.818010	7.550050	-0.992822	-0.200179	0.560995	-0.248979	-1.008476	-0.623884	0.655464	-0.697196	0.290319	0.537126	0.700587	0.469759	-0.530908	-0.151972	0.833692
20314	1.275980	6.986660	6.985020	-0.946753	-0.176098	0.546103	-0.250429	-1.020322	-0.635107	0.657742	-0.693353	0.294342	0.538388	0.706038	0.460053	-0.526796	-0.144125	0.837684
20315	1.207300	7.258100	6.888220	-0.910609	-0.158875	0.535904	-0.251147	-1.021752	-0.652401	0.659799	-0.689774	0.298123	0.539661	0.711035	0.450773	-0.522907	-0.136534	0.841384
20316	0.634359	7.516150	6.737640	-0.861705	-0.166851	0.498101	-0.253951	-1.023228	-0.668804	0.661877	-0.686191	0.301762	0.540704	0.715843	0.441823	-0.519190	-0.129268	0.844826
20317	0.147701	7.592770	6.465980	-0.817838	-0.180005	0.421158	-0.266659	-1.034396	-0.692924	0.663228	-0.683389	0.305135	0.542170	0.719767	0.433575	-0.515927	-0.122124	0.847883
20318	0.228809	7.560590	6.017330	-0.771531	-0.215136	0.339845	-0.271291	-1.046695	-0.703371	0.664207	-0.680956	0.308428	0.543735	0.723220	0.425799	-0.513012	-0.115116	0.850627
20319	0.010734	7.510920	5.531000	-0.728655	-0.251431	0.250204	-0.272620	-1.043282	-0.721932	0.664286	-0.679419	0.311632	0.545825	0.725746	0.418768	-0.510685	-0.108085	0.852947
20320	-0.391324	7.685420	5.337580	-0.687439	-0.285081	0.174609	-0.279233	-1.038051	-0.732323	0.664009	-0.678230	0.314794	0.548032	0.727851	0.412181	-0.508677	-0.101175	0.854992
20321	-0.835304	8.184860	4.712680	-0.627051	-0.288426	0.105611	-0.284509	-1.045210	-0.747492	0.663128	-0.677737	0.317700	0.550538	0.729192	0.406432	-0.507118	-0.094610	0.856668
20322	-1.018420	8.885410	3.993660	-0.545498	-0.262688	0.058136	-0.281165	-1.053922	-0.766464	0.662319	-0.677358	0.320186	0.552792	0.730266	0.401413	-0.505722	-0.088867	0.858107
20323	-1.185540	9.389010	3.193420	-0.435628	-0.242924	0.002867	-0.293707	-1.059708	-0.786042	0.661111	-0.677541	0.322289	0.554996	0.730673	0.397614	-0.504887	-0.083998	0.859088
20324	-1.413900	9.590960	3.083080	-0.319889	-0.247184	-0.083108	-0.290858	-1.067070	-0.792076	0.659571	-0.678187	0.324081	0.557059	0.730523	0.394996	-0.504630	-0.079996	0.859622
20325	-1.524930	9.550520	3.301110	-0.221568	-0.264377	-0.185291	-0.286525	-1.071237	-0.797149	0.657206	-0.679740	0.325628	0.559419	0.729448	0.393644	-0.505104	-0.076543	0.859657
20326	-0.850432	9.608750	3.351040	-0.125637	-0.269611	-0.280772	-0.280560	-1.068974	-0.804543	0.654405	-0.681860	0.326836	0.561822	0.727751	0.393364	-0.506074	-0.073796	0.859327
20327	1.129580	10.065900	2.526020	0.004136	-0.182737	-0.244484	-0.280140	-1.080947	-0.800429	0.652108	-0.683764	0.327448	0.563419	0.726089	0.394150	-0.507262	-0.072537	0.858734
20328	2.295330	10.888000	1.500850	0.176876	-0.018118	-0.085722	-0.272949	-1.089248	-0.818026	0.651626	-0.684312	0.327262	0.563038	0.725456	0.395855	-0.508303	-0.073688	0.858020
20329	2.157750	11.514200	1.055560	0.388287	0.154737	0.071014	-0.277263	-1.103115	-0.811492	0.652816	-0.683674	0.326223	0.560621	0.725659	0.398903	-0.509446	-0.077523	0.857004
