// Start Time: Unknown
// Update Rate: 100.0Hz
// Filter Profile: human (46.1)
// Firmware Version: 4.6.0
PacketCounter	Acc_X	Acc_Y	Acc_Z	Gyr_X	Gyr_Y	Gyr_Z	Mag_X	Mag_Y	Mag_Z	Mat[1][1]	Mat[2][1]	Mat[3][1]	Mat[1][2]	Mat[2][2]	Mat[3][2]	Mat[1][3]	Mat[2][3]	Mat[3][3]
19648	1.694760	3.542650	8.988860	-0.012052	0.007360	0.000162	-0.464713	-0.663002	-0.711933	0.688181	-0.705027	0.171300	0.620755	0.694370	0.364024	-0.375592	-0.144179	0.915501
19649	1.693960	3.541640	8.989400	-0.011043	0.009010	-0.003633	-0.469530	-0.656598	-0.708607	0.688193	-0.705039	0.171204	0.620822	0.694360	0.363929	-0.375462	-0.144166	0.915557
19650	1.653320	3.562610	9.028720	-0.013057	0.006531	-0.000678	-0.469549	-0.666372	-0.716520	0.688215	-0.705031	0.171147	0.620874	0.694379	0.363804	-0.375334	-0.144114	0.915617
19651	1.696180	3.551630	9.048970	-0.011548	0.008187	-0.001738	-0.469602	-0.668050	-0.718053	0.688235	-0.705031	0.171066	0.620929	0.694384	0.363701	-0.375206	-0.144092	0.915674
19652	1.721050	3.528790	9.042200	-0.009977	0.007575	-0.003154	-0.469732	-0.658625	-0.714607	0.688244	-0.705042	0.170985	0.620989	0.694376	0.363614	-0.375090	-0.144075	0.915723
19653	1.661300	3.576640	9.015920	-0.008973	0.008405	-0.002316	-0.467039	-0.665282	-0.719769	0.688261	-0.705046	0.170899	0.621038	0.694373	0.363535	-0.374977	-0.144072	0.915770
19654	1.665750	3.520100	9.037790	-0.011492	0.005101	0.002535	-0.463229	-0.667188	-0.716625	0.688297	-0.705020	0.170862	0.621065	0.694408	0.363422	-0.374868	-0.144026	0.915822
19655	1.663720	3.557620	8.999880	-0.014242	0.013327	-0.005085	-0.472948	-0.657035	-0.720104	0.688315	-0.705037	0.170721	0.621153	0.694393	0.363300	-0.374688	-0.144021	0.915897
19656	1.678180	3.517600	9.007590	-0.013630	0.007156	0.006200	-0.472038	-0.665049	-0.720856	0.688382	-0.704982	0.170677	0.621164	0.694458	0.363157	-0.374547	-0.143972	0.915962
19657	1.673460	3.532870	9.025530	-0.022037	0.014124	0.001626	-0.466909	-0.669337	-0.706205	0.688445	-0.704951	0.170553	0.621236	0.694501	0.362952	-0.374313	-0.143919	0.916066
19658	1.698020	3.509120	9.019180	-0.017896	0.012909	0.004266	-0.471330	-0.666727	-0.720501	0.688522	-0.704901	0.170449	0.621278	0.694560	0.362767	-0.374102	-0.143877	0.916159
19659	1.750290	3.514400	9.025540	-0.019136	0.022796	-0.004414	-0.460889	-0.663165	-0.721553	0.688579	-0.704899	0.170224	0.621380	0.694557	0.362599	-0.373826	-0.143905	0.916267
19660	1.865340	3.543730	9.023220	-0.015418	0.039101	-0.008543	-0.467337	-0.666957	-0.714225	0.688675	-0.704898	0.169842	0.621501	0.694527	0.362449	-0.373449	-0.144052	0.916398
19661	1.886130	3.521020	9.017280	-0.009110	0.057277	-0.022518	-0.463172	-0.669640	-0.711148	0.688748	-0.704972	0.169235	0.621690	0.694381	0.362403	-0.372998	-0.144393	0.916528
19662	1.861150	3.508760	8.991850	-0.008153	0.081015	-0.029665	-0.464389	-0.662734	-0.716563	0.688864	-0.705051	0.168434	0.621920	0.694205	0.362346	-0.372400	-0.144855	0.916698
19663	1.758020	3.523750	9.026860	-0.004435	0.098184	-0.038476	-0.463570	-0.670512	-0.717027	0.688990	-0.705175	0.167394	0.622202	0.693940	0.362370	-0.371696	-0.145516	0.916879
19664	1.598720	3.570560	9.017780	-0.005641	0.104203	-0.038312	-0.467679	-0.666427	-0.723883	0.689133	-0.705275	0.166383	0.622476	0.693710	0.362340	-0.370971	-0.146131	0.917075
19665	1.463620	3.534920	9.095210	-0.003699	0.089181	-0.037256	-0.458800	-0.662287	-0.719580	0.689232	-0.705402	0.165430	0.622746	0.693453	0.362368	-0.370333	-0.146734	0.917236
19666	1.426390	3.544890	9.045130	-0.002668	0.066286	-0.023809	-0.461618	-0.658112	-0.716853	0.689328	-0.705459	0.164789	0.622919	0.693314	0.362337	-0.369864	-0.147119	0.917364
19667	1.398700	3.549600	9.036170	-0.008463	0.049744	-0.016366	-0.458076	-0.675561	-0.721646	0.689410	-0.705499	0.164273	0.623063	0.693211	0.362287	-0.369469	-0.147411	0.917476
19668	1.448510	3.556110	9.042750	-0.007477	0.029919	-0.007165	-0.457956	-0.661916	-0.715771	0.689482	-0.705500	0.163967	0.623154	0.693182	0.362185	-0.369180	-0.147543	0.917571
19669	1.500120	3.562520	9.049110	-0.008181	0.016072	-0.000486	-0.463768	-0.666951	-0.713608	0.689538	-0.705479	0.163818	0.623188	0.693191	0.362110	-0.369018	-0.147600	0.917627
19670	1.525050	3.539900	9.042420	-0.007952	0.005325	0.007389	-0.460999	-0.664500	-0.718947	0.689615	-0.705420	0.163751	0.623190	0.693255	0.361983	-0.368871	-0.147581	0.917689
19671	1.503350	3.543930	9.032780	-0.008905	0.001393	0.010834	-0.464549	-0.665248	-0.722640	0.689688	-0.705342	0.163777	0.623148	0.693345	0.361884	-0.368806	-0.147529	0.917724
19672	1.583450	3.528180	9.031690	-0.008281	-0.003150	0.012872	-0.459120	-0.659185	-0.718995	0.689772	-0.705259	0.163780	0.623122	0.693444	0.361737	-0.368691	-0.147461	0.917781
19673	1.675060	3.490360	9.054870	-0.014417	-0.003589	0.008522	-0.461456	-0.667793	-0.721688	0.689812	-0.705205	0.163844	0.623117	0.693525	0.361591	-0.368626	-0.147336	0.917827
19674	1.693110	3.501330	9.082320	-0.005241	0.001003	0.006120	-0.458989	-0.667794	-0.722760	0.689870	-0.705161	0.163793	0.623128	0.693578	0.361472	-0.368499	-0.147305	0.917883
19675	1.710190	3.522640	8.995650	-0.005892	0.009479	-0.004843	-0.462700	-0.676582	-0.716262	0.689875	-0.705180	0.163689	0.623183	0.693552	0.361426	-0.368397	-0.147331	0.917920
19676	1.688010	3.488520	9.024490	-0.003004	0.017346	-0.006255	-0.460716	-0.661585	-0.725934	0.689905	-0.705202	0.163469	0.623275	0.693515	0.361338	-0.368184	-0.147402	0.917994
19677	1.603220	3.481580	9.081780	0.002528	0.023162	-0.008583	-0.455297	-0.667265	-0.721159	0.689936	-0.705227	0.163225	0.623325	0.693451	0.361375	-0.368040	-0.147583	0.918023
19678	1.527760	3.530600	9.086270	0.004151	0.019450	-0.005705	-0.455864	-0.665963	-0.719509	0.689988	-0.705227	0.163006	0.623381	0.693427	0.361324	-0.367848	-0.147694	0.918082
19679	1.486500	3.524050	9.049230	0.005218	0.018010	-0.005215	-0.456445	-0.663758	-0.722964	0.690022	-0.705237	0.162821	0.623398	0.693382	0.361380	-0.367756	-0.147858	0.918092
19680	1.481320	3.541340	9.066400	0.003355	0.007038	0.005966	-0.455765	-0.666823	-0.714742	0.690100	-0.705182	0.162728	0.623387	0.693431	0.361306	-0.367627	-0.147895	0.918138
19681	1.517400	3.536730	9.044950	0.005623	-0.000391	0.006250	-0.461322	-0.665275	-0.716353	0.690138	-0.705139	0.162754	0.623324	0.693466	0.361347	-0.367664	-0.147931	0.918117
19682	1.611900	3.522190	9.012110	0.002601	-0.003714	0.008363	-0.463071	-0.666140	-0.719248	0.690191	-0.705089	0.162745	0.623299	0.693520	0.361287	-0.367606	-0.147918	0.918143
19683	1.677540	3.507820	9.041900	0.009268	-0.001612	0.006177	-0.463311	-0.668263	-0.726499	0.690224	-0.705048	0.162782	0.623223	0.693550	0.361362	-0.367675	-0.147971	0.918107
19684	1.559000	3.506480	9.119790	0.009267	-0.001612	0.006176	-0.453784	-0.663096	-0.725111	0.690283	-0.704996	0.162759	0.623190	0.693600	0.361322	-0.367620	-0.147985	0.918126
19685	1.562460	3.529200	9.063790	0.012845	-0.000561	0.006452	-0.449356	-0.666449	-0.721219	0.690321	-0.704952	0.162787	0.623098	0.693626	0.361429	-0.367704	-0.148070	0.918079
19686	1.530910	3.518070	9.067580	0.008312	-0.005544	0.009622	-0.458970	-0.672746	-0.723208	0.690373	-0.704902	0.162785	0.623072	0.693681	0.361370	-0.367651	-0.148053	0.918103
19687	1.557010	3.535610	9.021530	0.010067	-0.013801	0.011804	-0.464454	-0.671236	-0.716526	0.690396	-0.704841	0.162953	0.622954	0.693749	0.361442	-0.367808	-0.148026	0.918045
19688	1.590770	3.547880	9.016890	0.001268	-0.013017	0.013006	-0.462106	-0.666537	-0.718185	0.690437	-0.704783	0.163025	0.622931	0.693831	0.361324	-0.367767	-0.147918	0.918078
19689	1.603660	3.526160	9.040820	0.005846	-0.011134	0.014121	-0.455749	-0.669705	-0.723414	0.690484	-0.704702	0.163177	0.622813	0.693921	0.361355	-0.367880	-0.147881	0.918039
19690	1.659180	3.533230	9.046270	0.001246	-0.013841	0.017640	-0.459073	-0.667903	-0.714641	0.690558	-0.704605	0.163281	0.622749	0.694043	0.361230	-0.367848	-0.147767	0.918070
19691	1.696650	3.528090	9.024730	0.000514	-0.003925	0.011662	-0.461001	-0.663444	-0.725234	0.690616	-0.704531	0.163358	0.622668	0.694124	0.361215	-0.367878	-0.147743	0.918062
19692	1.660860	3.533030	9.046040	0.001915	0.003107	0.006668	-0.461555	-0.653735	-0.712874	0.690692	-0.704468	0.163310	0.622650	0.694189	0.361121	-0.367766	-0.147738	0.918108
19693	1.660670	3.533000	9.046080	-0.000218	0.005991	0.005685	-0.453511	-0.662721	-0.724359	0.690749	-0.704420	0.163274	0.622613	0.694229	0.361109	-0.367722	-0.147779	0.918119
19694	1.616610	3.542770	9.026240	-0.001328	0.010532	0.000907	-0.461255	-0.669663	-0.719267	0.690839	-0.704352	0.163187	0.622599	0.694294	0.361007	-0.367575	-0.147798	0.918174
19695	1.609200	3.508940	9.023540	0.001184	0.013023	0.000690	-0.466038	-0.680402	-0.713707	0.690891	-0.704328	0.163069	0.622591	0.694297	0.361015	-0.367491	-0.147897	0.918192
19696	1.572110	3.514000	9.045030	0.001228	0.009924	0.004976	-0.456166	-0.664670	-0.715411	0.690933	-0.704313	0.162958	0.622616	0.694304	0.360958	-0.367370	-0.147937	0.918234
19697	1.577620	3.547920	9.048030	0.002250	0.011583	0.001181	-0.455895	-0.669303	-0.717547	0.690982	-0.704288	0.162855	0.622600	0.694308	0.360978	-0.367304	-0.148036	0.918245
19698	1.559510	3.535820	9.021010	-0.002753	0.002674	0.010535	-0.462320	-0.665482	-0.722576	0.691045	-0.704233	0.162828	0.622590	0.694370	0.360875	-0.367203	-0.148006	0.918290
19699	1.601990	3.564130	9.002770	-0.005374	0.005556	0.006813	-0.454161	-0.669803	-0.720419	0.691107	-0.704178	0.162799	0.622564	0.694425	0.360816	-0.367131	-0.148009	0.918318
19700	1.649030	3.536540	9.006050	-0.009083	0.009053	0.007234	-0.467013	-0.668831	-0.717912	0.691191	-0.704122	0.162689	0.622605	0.694492	0.360616	-0.366904	-0.147964	0.918416
19701	1.627410	3.501870	9.035000	-0.009126	0.012154	0.002947	-0.458978	-0.663701	-0.718024	0.691253	-0.704084	0.162586	0.622619	0.694525	0.360528	-0.366762	-0.147988	0.918469
19702	1.701570	3.503150	9.051380	-0.006233	0.020022	0.001530	-0.451376	-0.662513	-0.719226	0.691357	-0.704021	0.162417	0.622630	0.694576	0.360412	-0.366548	-0.148048	0.918545
19703	1.692180	3.507430	9.010660	-0.008895	0.026007	-0.006482	-0.461421	-0.667837	-0.720259	0.691411	-0.704029	0.162153	0.622708	0.694542	0.360342	-0.366313	-0.148171	0.918619
19704	1.617010	3.517020	9.053960	-0.001383	0.032657	-0.002496	-0.462737	-0.665816	-0.718851	0.691515	-0.703999	0.161841	0.622767	0.694539	0.360246	-0.366018	-0.148326	0.918711
19705	1.566550	3.543980	9.051490	0.002351	0.029989	-0.007555	-0.459650	-0.667101	-0.719544	0.691577	-0.704008	0.161536	0.622811	0.694481	0.360281	-0.365825	-0.148555	0.918751
19706	1.467520	3.508530	9.064310	0.003035	0.023172	-0.005864	-0.460297	-0.673900	-0.720360	0.691639	-0.703994	0.161331	0.622841	0.694468	0.360256	-0.365657	-0.148683	0.918797
19707	1.465790	3.509000	9.064410	0.006825	0.013470	0.002295	-0.457407	-0.668317	-0.723656	0.691702	-0.703959	0.161214	0.622800	0.694472	0.360316	-0.365607	-0.148827	0.918794
19708	1.434540	3.586980	9.050050	0.004485	0.003327	0.006103	-0.460831	-0.662457	-0.720996	0.691737	-0.703941	0.161147	0.622815	0.694488	0.360260	-0.365516	-0.148840	0.918828
19709	1.482530	3.560170	9.052940	-0.000947	-0.007863	0.012373	-0.458896	-0.670089	-0.717645	0.691784	-0.703868	0.161261	0.622734	0.694575	0.360233	-0.365564	-0.148781	0.918818
19710	1.635500	3.534820	9.009190	-0.005564	-0.006641	0.006964	-0.456508	-0.663073	-0.724099	0.691821	-0.703821	0.161309	0.622722	0.694642	0.360124	-0.365515	-0.148690	0.918853
19711	1.618930	3.522300	8.982050	-0.003946	-0.010356	0.009847	-0.459760	-0.666611	-0.723116	0.691843	-0.703769	0.161438	0.622669	0.694716	0.360074	-0.365562	-0.148592	0.918850
19712	1.634320	3.511880	9.064850	-0.005143	-0.004364	0.010048	-0.457737	-0.672593	-0.726204	0.691920	-0.703685	0.161473	0.622651	0.694825	0.359894	-0.365448	-0.148477	0.918914
19713	1.661220	3.450890	9.096320	0.000330	0.003723	0.008069	-0.456408	-0.665608	-0.728137	0.691983	-0.703625	0.161466	0.622595	0.694880	0.359886	-0.365424	-0.148507	0.918918
19714	1.612380	3.516630	9.054930	0.005251	0.014082	0.003698	-0.458925	-0.662679	-0.725239	0.692056	-0.703599	0.161267	0.622650	0.694893	0.359764	-0.365193	-0.148564	0.919001
19715	1.568630	3.488460	9.073270	0.010315	0.015965	0.007554	-0.452023	-0.669743	-0.712780	0.692160	-0.703524	0.161144	0.622562	0.694930	0.359847	-0.365145	-0.148750	0.918990
19716	1.562730	3.544970	9.051770	0.011866	0.014526	0.010784	-0.460759	-0.668326	-0.720438	0.692258	-0.703461	0.161000	0.622504	0.694958	0.359890	-0.365057	-0.148914	0.918998
19717	1.576290	3.545950	9.020200	0.013537	0.012465	0.004397	-0.462843	-0.664924	-0.720536	0.692330	-0.703414	0.160897	0.622427	0.694967	0.360008	-0.365053	-0.149098	0.918970
19718	1.607250	3.558950	9.015820	0.011921	0.016181	0.001510	-0.458649	-0.666920	-0.722409	0.692425	-0.703350	0.160769	0.622359	0.694996	0.360069	-0.364989	-0.149264	0.918969
19719	1.563450	3.531040	9.034060	0.007894	0.012029	0.002781	-0.454517	-0.667166	-0.722500	0.692485	-0.703314	0.160666	0.622313	0.695001	0.360138	-0.364953	-0.149406	0.918960
19720	1.576960	3.531520	9.002700	0.004830	0.011810	0.000605	-0.461055	-0.665756	-0.721560	0.692527	-0.703309	0.160507	0.622352	0.694990	0.360093	-0.364808	-0.149482	0.919005
19721	1.551190	3.515270	9.048140	0.008510	0.007484	0.004826	-0.454350	-0.662524	-0.717418	0.692583	-0.703266	0.160452	0.622290	0.695009	0.360164	-0.364806	-0.149596	0.918987
19722	1.471210	3.530950	9.049040	0.008575	0.005209	0.004479	-0.464746	-0.665628	-0.720998	0.692652	-0.703206	0.160422	0.622224	0.695055	0.360189	-0.364789	-0.149667	0.918982
19723	1.492990	3.526830	9.058760	0.011900	-0.003670	0.005272	-0.459105	-0.659887	-0.716077	0.692670	-0.703177	0.160471	0.622147	0.695072	0.360290	-0.364886	-0.149726	0.918934
19724	1.562250	3.534700	9.032830	0.013066	-0.010487	0.009710	-0.461979	-0.669580	-0.718267	0.692760	-0.703044	0.160663	0.621950	0.695206	0.360372	-0.365051	-0.149727	0.918869
19725	1.505880	3.545810	9.043320	0.013776	-0.016483	0.006774	-0.461142	-0.663795	-0.720336	0.692742	-0.703022	0.160837	0.621853	0.695232	0.360487	-0.365250	-0.149708	0.918793
19726	1.554530	3.558480	9.007170	0.008655	-0.020014	0.012187	-0.458980	-0.674177	-0.719066	0.692770	-0.702942	0.161065	0.621717	0.695329	0.360536	-0.365429	-0.149632	0.918734
19727	1.647380	3.522190	9.029750	0.006618	-0.018579	0.006216	-0.457371	-0.659820	-0.718356	0.692740	-0.702928	0.161257	0.621650	0.695362	0.360587	-0.365599	-0.149548	0.918680
19728	1.681210	3.534760	9.025010	0.011553	-0.012142	0.010758	-0.454097	-0.663674	-0.720276	0.692750	-0.702896	0.161351	0.621575	0.695392	0.360658	-0.365708	-0.149554	0.918636
19729	1.593080	3.495180	9.078340	0.012451	-0.005937	0.007653	-0.461600	-0.665341	-0.717048	0.692776	-0.702853	0.161432	0.621477	0.695426	0.360762	-0.365826	-0.149601	0.918581
19730	1.649680	3.554240	9.103570	0.020505	0.002366	0.005097	-0.467361	-0.666743	-0.719355	0.692827	-0.702808	0.161404	0.621386	0.695442	0.360888	-0.365882	-0.149739	0.918536
19731	1.646270	3.543900	9.044450	0.019890	0.006912	0.003049	-0.458500	-0.660091	-0.718820	0.692871	-0.702777	0.161350	0.621293	0.695432	0.361067	-0.365957	-0.149927	0.918475
19732	1.628090	3.533540	9.016760	0.016826	0.006691	0.000876	-0.461138	-0.667192	-0.724627	0.692973	-0.702669	0.161381	0.621139	0.695517	0.361168	-0.366024	-0.150040	0.918430
19733	1.547900	3.549900	9.017480	0.013183	0.007917	0.000945	-0.449325	-0.666760	-0.714807	0.693008	-0.702651	0.161311	0.621084	0.695504	0.361288	-0.366052	-0.150187	0.918395
19734	1.558620	3.529120	9.041470	0.010155	0.004599	0.003063	-0.454958	-0.669170	-0.712961	0.693007	-0.702681	0.161185	0.621130	0.695456	0.361301	-0.365977	-0.150268	0.918412
19735	1.595410	3.486220	9.058470	0.009706	0.001498	0.004615	-0.457083	-0.665843	-0.714258	0.693041	-0.702647	0.161187	0.621063	0.695473	0.361383	-0.366026	-0.150346	0.918380
19736	1.633280	3.571260	9.018280	0.007220	-0.000175	0.000202	-0.463517	-0.653905	-0.711393	0.692978	-0.702726	0.161115	0.621102	0.695371	0.361511	-0.366078	-0.150451	0.918342
19737	1.622690	3.555300	9.032200	0.013219	0.004824	0.005231	-0.462226	-0.662698	-0.719804	0.693028	-0.702683	0.161087	0.621019	0.695386	0.361626	-0.366126	-0.150578	0.918302
19738	1.658160	3.551200	9.010680	0.009505	0.012238	-0.003279	-0.465210	-0.670013	-0.722410	0.693187	-0.702509	0.161161	0.620815	0.695547	0.361667	-0.366169	-0.150651	0.918272
19739	1.673510	3.602730	8.999190	0.008826	0.019058	-0.004986	-0.458730	-0.664811	-0.715369	0.693226	-0.702515	0.160969	0.620817	0.695499	0.361757	-0.366093	-0.150847	0.918271
19740	1.607030	3.579740	9.007630	0.005148	0.023379	-0.009209	-0.453988	-0.669681	-0.720297	0.693279	-0.702506	0.160775	0.620821	0.695469	0.361806	-0.365985	-0.151020	0.918285
19741	1.493760	3.544690	9.051670	0.001540	0.021511	-0.004850	-0.453032	-0.665959	-0.720953	0.693328	-0.702507	0.160561	0.620848	0.695433	0.361829	-0.365847	-0.151182	0.918314
19742	1.455290	3.588490	9.034530	-0.001229	0.009089	-0.004102	-0.456143	-0.666559	-0.723667	0.693277	-0.702610	0.160333	0.621031	0.695326	0.361722	-0.365633	-0.151202	0.918396
19743	1.509190	3.556600	9.079230	-0.003707	0.003500	0.000412	-0.463018	-0.667211	-0.715242	0.693292	-0.702602	0.160301	0.621042	0.695334	0.361687	-0.365585	-0.151201	0.918415
19744	1.560200	3.550910	9.026830	-0.004572	-0.005799	0.007815	-0.455585	-0.665349	-0.719948	0.693338	-0.702535	0.160394	0.620994	0.695421	0.361602	-0.365579	-0.151108	0.918432
19745	1.582440	3.545480	9.037000	-0.002703	0.000420	0.010176	-0.462303	-0.670218	-0.716913	0.693403	-0.702464	0.160427	0.620934	0.695496	0.361560	-0.365559	-0.151093	0.918443
19746	1.565290	3.532910	9.009980	-0.006216	-0.002907	0.009559	-0.460011	-0.675177	-0.718846	0.693442	-0.702416	0.160468	0.620906	0.695557	0.361492	-0.365533	-0.151038	0.918462
19747	1.543130	3.566290	9.075630	-0.006281	-0.000630	0.009901	-0.458607	-0.671778	-0.718520	0.693501	-0.702348	0.160509	0.620860	0.695635	0.361419	-0.365498	-0.150991	0.918484
19748	1.562910	3.509940	9.065970	-0.003638	-0.002689	0.008993	-0.456774	-0.663590	-0.717496	0.693466	-0.702395	0.160457	0.620901	0.695579	0.361458	-0.365497	-0.151031	0.918478
19749	1.563630	3.509360	9.066070	-0.005668	-0.005174	0.011950	-0.465390	-0.658867	-0.721971	0.693520	-0.702321	0.160545	0.620839	0.695670	0.361389	-0.365498	-0.150958	0.918490
19750	1.564630	3.508830	9.066100	-0.002447	-0.008682	0.008801	-0.459507	-0.675123	-0.714109	0.693646	-0.702144	0.160778	0.620682	0.695887	0.361241	-0.365526	-0.150782	0.918507
19751	1.532950	3.535290	9.031610	-0.001383	-0.010124	0.009295	-0.458762	-0.671740	-0.708383	0.693666	-0.702095	0.160904	0.620622	0.695954	0.361215	-0.365589	-0.150702	0.918495
19752	1.595280	3.537030	9.078820	-0.002319	-0.013232	0.008113	-0.460952	-0.659121	-0.712556	0.693536	-0.702218	0.160926	0.620648	0.695808	0.361451	-0.365791	-0.150801	0.918399
19753	1.614600	3.558440	8.991640	0.002837	-0.012799	0.006983	-0.460896	-0.666839	-0.715739	0.693532	-0.702190	0.161067	0.620589	0.695850	0.361471	-0.365900	-0.150735	0.918366
19754	1.623100	3.553590	9.032800	-0.000805	-0.011572	0.007052	-0.464163	-0.664326	-0.716548	0.693571	-0.702102	0.161283	0.620458	0.695959	0.361488	-0.366047	-0.150648	0.918322
19755	1.602520	3.558220	9.022670	-0.004995	-0.008076	0.004730	-0.456834	-0.663597	-0.716137	0.693570	-0.702082	0.161374	0.620443	0.695997	0.361440	-0.366076	-0.150561	0.918324
19756	1.624920	3.552740	9.032810	-0.004544	-0.004975	0.003177	-0.460149	-0.663521	-0.723644	0.693600	-0.702029	0.161477	0.620395	0.696070	0.361381	-0.366099	-0.150475	0.918329
19757	1.586790	3.506590	9.034260	-0.005608	-0.003533	0.002682	-0.464195	-0.672894	-0.720570	0.693603	-0.702016	0.161519	0.620396	0.696095	0.361332	-0.366093	-0.150415	0.918342
19758	1.593640	3.539960	9.037190	-0.003029	-0.003317	0.002117	-0.462327	-0.665547	-0.726430	0.693621	-0.701989	0.161559	0.620403	0.696143	0.361228	-0.366046	-0.150324	0.918375
19759	1.633340	3.546730	9.074430	-0.001451	-0.003934	0.000715	-0.457135	-0.663718	-0.714320	0.693610	-0.701991	0.161598	0.620402	0.696148	0.361219	-0.366068	-0.150289	0.918372
19760	1.547460	3.528010	9.072710	0.000515	0.000826	-0.001897	-0.461036	-0.670034	-0.716893	0.693629	-0.701975	0.161587	0.620429	0.696177	0.361117	-0.365988	-0.150228	0.918414
19761	1.562150	3.528000	9.041300	0.002190	-0.005160	0.000644	-0.463770	-0.661451	-0.719438	0.693613	-0.701979	0.161637	0.620415	0.696177	0.361141	-0.366041	-0.150210	0.918396
19762	1.552400	3.511530	9.055280	0.006866	-0.008648	0.005698	-0.458992	-0.659794	-0.716598	0.693645	-0.701913	0.161787	0.620305	0.696250	0.361190	-0.366168	-0.150180	0.918350
19763	1.531710	3.517050	9.044840	0.006866	-0.008647	0.005697	-0.459367	-0.670515	-0.724723	0.693648	-0.701887	0.161889	0.620238	0.696279	0.361248	-0.366275	-0.150169	0.918309
19764	1.618910	3.536230	9.046130	0.006901	-0.011739	0.009983	-0.459311	-0.660964	-0.719925	0.693680	-0.701830	0.161996	0.620194	0.696357	0.361174	-0.366290	-0.150071	0.918320
19765	1.620200	3.536730	9.045700	0.007838	-0.008630	0.011164	-0.458779	-0.666464	-0.710361	0.693717	-0.701766	0.162116	0.620086	0.696423	0.361231	-0.366401	-0.150066	0.918276
19766	1.588550	3.563900	9.010970	0.004259	-0.009678	0.010891	-0.458882	-0.664276	-0.718102	0.693748	-0.701708	0.162233	0.620003	0.696489	0.361247	-0.366483	-0.150029	0.918249
19767	1.568930	3.530400	9.039190	0.002744	-0.011334	0.011948	-0.464868	-0.665023	-0.712202	0.693780	-0.701642	0.162381	0.619909	0.696568	0.361256	-0.366582	-0.149971	0.918219
19768	1.574660	3.513250	9.021880	-0.001801	-0.016305	0.015123	-0.461898	-0.669121	-0.723317	0.693829	-0.701538	0.162622	0.619768	0.696697	0.361249	-0.366728	-0.149857	0.918179
19769	1.594140	3.525100	9.048740	0.003807	-0.012775	0.012438	-0.460988	-0.660838	-0.731174	0.693859	-0.701471	0.162786	0.619666	0.696778	0.361268	-0.366844	-0.149796	0.918143
19770	1.632120	3.520130	9.027060	0.005418	-0.016481	0.015317	-0.461899	-0.666211	-0.716335	0.693956	-0.701329	0.162982	0.619600	0.696978	0.360994	-0.366770	-0.149530	0.918216
19771	1.644300	3.537320	9.012330	0.007899	-0.010901	0.010809	-0.455724	-0.662917	-0.715710	0.693983	-0.701269	0.163122	0.619495	0.697043	0.361050	-0.366896	-0.149509	0.918169
19772	1.573230	3.548260	9.054480	0.008838	-0.007793	0.011989	-0.464655	-0.665444	-0.718069	0.693999	-0.701243	0.163168	0.619448	0.697067	0.361084	-0.366947	-0.149518	0.918147
19773	1.610480	3.543840	9.032690	0.012417	-0.006745	0.012258	-0.460830	-0.661539	-0.720427	0.694050	-0.701168	0.163275	0.619317	0.697134	0.361179	-0.367071	-0.149557	0.918091
19774	1.585950	3.566770	9.039150	0.012478	-0.009018	0.011911	-0.467696	-0.660521	-0.717425	0.694142	-0.701036	0.163448	0.619159	0.697278	0.361172	-0.367163	-0.149504	0.918063
19775	1.602440	3.528590	9.045920	0.005319	-0.011110	0.011371	-0.457246	-0.667137	-0.719037	0.694172	-0.700973	0.163592	0.619060	0.697351	0.361202	-0.367274	-0.149463	0.918026
19776	1.593000	3.550710	9.021170	0.006903	-0.015629	0.018876	-0.467280	-0.660855	-0.723184	0.694265	-0.700826	0.163828	0.618892	0.697523	0.361157	-0.367382	-0.149347	0.918001
19777	1.605960	3.529330	9.045010	0.008384	-0.010884	0.013532	-0.466392	-0.664576	-0.719516	0.694309	-0.700747	0.163978	0.618766	0.697607	0.361211	-0.367510	-0.149328	0.917953
19778	1.596510	3.551530	9.020230	0.005413	-0.016467	0.015303	-0.466586	-0.669979	-0.716276	0.694459	-0.700516	0.164330	0.618524	0.697883	0.361093	-0.367634	-0.149122	0.917937
19779	1.641650	3.541760	9.039870	0.005806	-0.011095	0.014095	-0.467104	-0.666641	-0.714753	0.694507	-0.700432	0.164486	0.618403	0.697976	0.361121	-0.367748	-0.149082	0.917898
19780	1.606180	3.585880	9.022230	0.005258	-0.008830	0.011708	-0.469000	-0.665180	-0.716465	0.694549	-0.700354	0.164640	0.618240	0.698043	0.361268	-0.367941	-0.149131	0.917812
19781	1.564860	3.557470	9.040490	0.001738	-0.012149	0.011094	-0.459256	-0.671161	-0.718512	0.694574	-0.700292	0.164795	0.618155	0.698121	0.361265	-0.368038	-0.149056	0.917786
19782	1.624410	3.546830	9.029020	-0.005876	-0.017334	0.012108	-0.466505	-0.659716	-0.715872	0.694557	-0.700275	0.164940	0.618134	0.698166	0.361214	-0.368105	-0.148929	0.917779
19783	1.615990	3.529520	9.043140	-0.000747	-0.017718	0.015594	-0.463231	-0.666669	-0.717825	0.694589	-0.700191	0.165163	0.618026	0.698278	0.361181	-0.368226	-0.148798	0.917752
19784	1.686870	3.496720	9.056050	-0.010064	-0.013838	0.009797	-0.458592	-0.670844	-0.715930	0.694635	-0.700097	0.165368	0.617961	0.698417	0.361023	-0.368247	-0.148588	0.917778
19785	1.741160	3.541540	9.023170	0.002587	-0.003683	0.008335	-0.466311	-0.670335	-0.716742	0.694674	-0.700042	0.165436	0.617892	0.698474	0.361032	-0.368291	-0.148578	0.917762
19786	1.662020	3.556830	9.024450	-0.001086	0.000631	0.004134	-0.469506	-0.659226	-0.711733	0.694602	-0.700151	0.165277	0.618004	0.698344	0.361091	-0.368238	-0.148673	0.917767
19787	1.651380	3.539960	9.038800	-0.000118	0.004547	0.000691	-0.462471	-0.661688	-0.719747	0.694623	-0.700139	0.165240	0.617998	0.698350	0.361089	-0.368208	-0.148703	0.917775
19788	1.639740	3.561590	9.014650	-0.003757	0.005777	0.000770	-0.458757	-0.661503	-0.720916	0.694725	-0.700020	0.165314	0.617906	0.698483	0.360990	-0.368169	-0.148640	0.917801
19789	1.567770	3.542580	8.982020	-0.003210	0.003514	0.003154	-0.460323	-0.665020	-0.712726	0.694759	-0.699991	0.165297	0.617894	0.698512	0.360955	-0.368127	-0.148641	0.917817
19790	1.528550	3.525720	9.059220	-0.006697	-0.002887	0.006820	-0.459567	-0.663372	-0.716025	0.694746	-0.700019	0.165233	0.618002	0.698506	0.360780	-0.367969	-0.148536	0.917898
19791	1.597910	3.531550	9.033660	-0.004423	-0.013402	0.011386	-0.467566	-0.671687	-0.717666	0.694768	-0.699958	0.165399	0.617938	0.698594	0.360720	-0.368035	-0.148410	0.917891
19792	1.677830	3.554240	8.993760	-0.005552	-0.005791	0.002339	-0.470570	-0.670286	-0.722297	0.694709	-0.700023	0.165371	0.618020	0.698537	0.360692	-0.368010	-0.148373	0.917907
19793	1.731800	3.560320	8.999710	-0.007337	0.004734	0.000503	-0.462900	-0.670798	-0.715481	0.694730	-0.700012	0.165331	0.618042	0.698552	0.360623	-0.367932	-0.148354	0.917942
19794	1.742030	3.538000	9.024390	-0.003967	0.015683	-0.002470	-0.471291	-0.662405	-0.711520	0.694725	-0.700066	0.165120	0.618119	0.698468	0.360654	-0.367813	-0.148492	0.917967
19795	1.693600	3.526190	9.060480	-0.004059	0.021043	-0.006404	-0.468601	-0.665607	-0.722205	0.694763	-0.700080	0.164904	0.618178	0.698429	0.360628	-0.367642	-0.148611	0.918016
19796	1.691040	3.526080	9.061000	-0.001633	0.028889	-0.010563	-0.457276	-0.665526	-0.716478	0.694870	-0.700005	0.164768	0.618110	0.698470	0.360666	-0.367554	-0.148771	0.918026
19797	1.601190	3.546150	9.021510	-0.004759	0.030945	-0.012385	-0.463783	-0.659255	-0.720723	0.694907	-0.700045	0.164441	0.618212	0.698391	0.360644	-0.367311	-0.148954	0.918093
19798	1.602040	3.528970	9.005060	-0.003211	0.029516	-0.009169	-0.466876	-0.671424	-0.716254	0.694954	-0.700083	0.164083	0.618368	0.698329	0.360496	-0.366961	-0.149065	0.918215
19799	1.612690	3.557730	9.049880	-0.004760	0.030952	-0.012396	-0.464717	-0.666749	-0.712883	0.694991	-0.700123	0.163756	0.618471	0.698250	0.360473	-0.366718	-0.149247	0.918283
19800	1.508990	3.539110	9.080320	-0.006853	0.030754	-0.009104	-0.469578	-0.660068	-0.712408	0.694998	-0.700192	0.163429	0.618541	0.698120	0.360604	-0.366585	-0.149532	0.918289
19801	1.474040	3.565580	9.046460	-0.003852	0.011143	-0.003175	-0.462146	-0.661055	-0.714087	0.695019	-0.700197	0.163316	0.618576	0.698103	0.360576	-0.366486	-0.149584	0.918321
19802	1.495110	3.560110	9.056780	-0.005306	0.003313	0.006445	-0.468343	-0.664838	-0.712103	0.695131	-0.700051	0.163466	0.618404	0.698255	0.360578	-0.366564	-0.149562	0.918293
19803	1.557320	3.532130	9.028680	-0.008159	-0.006822	0.007528	-0.457384	-0.665163	-0.716445	0.695153	-0.700008	0.163559	0.618379	0.698321	0.360494	-0.366565	-0.149457	0.918310
19804	1.608860	3.516470	9.090280	-0.005035	-0.008875	0.009348	-0.453288	-0.667341	-0.720921	0.695152	-0.699987	0.163649	0.618333	0.698348	0.360520	-0.366644	-0.149427	0.918283
19805	1.592320	3.504120	9.063100	-0.000394	-0.009273	0.010111	-0.471028	-0.669712	-0.720474	0.695181	-0.699930	0.163774	0.618262	0.698419	0.360504	-0.366710	-0.149360	0.918268
19806	1.640180	3.515390	9.027440	-0.001970	-0.008652	0.011512	-0.465039	-0.666194	-0.723638	0.695174	-0.699938	0.163769	0.618298	0.698423	0.360435	-0.366663	-0.149307	0.918295
19807	1.673280	3.526920	9.023140	0.000090	-0.005362	0.003935	-0.451017	-0.662429	-0.717068	0.695178	-0.699918	0.163834	0.618268	0.698450	0.360433	-0.366704	-0.149272	0.918284
19808	1.637610	3.532270	9.044310	0.003611	-0.002044	0.004550	-0.460462	-0.669656	-0.719660	0.695160	-0.699966	0.163708	0.618386	0.698409	0.360311	-0.366540	-0.149239	0.918355
19809	1.640820	3.554020	8.988640	-0.000178	0.006824	0.001034	-0.460011	-0.659017	-0.719247	0.695191	-0.699949	0.163649	0.618379	0.698416	0.360309	-0.366493	-0.149287	0.918366
19810	1.637070	3.532590	9.044290	0.006011	0.004992	0.005019	-0.460594	-0.671819	-0.714452	0.695218	-0.699950	0.163526	0.618419	0.698405	0.360262	-0.366373	-0.149333	0.918407
19811	1.614280	3.576680	8.995600	0.004403	0.008700	0.002140	-0.457789	-0.667257	-0.716118	0.695263	-0.699923	0.163453	0.618389	0.698412	0.360300	-0.366340	-0.149426	0.918405
19812	1.593090	3.504840	9.062680	0.003917	0.008690	-0.000590	-0.466007	-0.659047	-0.720317	0.695161	-0.700093	0.163163	0.618549	0.698196	0.360444	-0.366264	-0.149643	0.918400
19813	1.602930	3.521880	9.048450	0.001398	0.006204	-0.000369	-0.457273	-0.669827	-0.719502	0.695180	-0.700088	0.163102	0.618547	0.698189	0.360460	-0.366229	-0.149699	0.918404
19814	1.597660	3.577740	9.026980	0.003917	0.008691	-0.000591	-0.462939	-0.663845	-0.723990	0.695214	-0.700083	0.162978	0.618583	0.698183	0.360409	-0.366105	-0.149745	0.918446
19815	1.543650	3.532720	9.059730	0.001914	0.007027	-0.002264	-0.467771	-0.670069	-0.710284	0.695224	-0.700090	0.162902	0.618594	0.698162	0.360432	-0.366067	-0.149811	0.918451
19816	1.564540	3.566400	9.031190	0.001031	-0.002255	0.005117	-0.469593	-0.657854	-0.720637	0.695227	-0.700074	0.162961	0.618537	0.698173	0.360510	-0.366158	-0.149839	0.918410
19817	1.558570	3.532360	9.028380	-0.004582	-0.005775	0.007798	-0.460801	-0.666804	-0.713499	0.695253	-0.700030	0.163039	0.618501	0.698231	0.360458	-0.366170	-0.149770	0.918416
19818	1.577120	3.543850	9.055530	-0.003431	-0.008681	0.003321	-0.460495	-0.664332	-0.709237	0.695287	-0.699953	0.163224	0.618412	0.698335	0.360409	-0.366254	-0.149648	0.918403
19819	1.639900	3.516020	9.027240	-0.006526	-0.009713	0.005780	-0.467629	-0.663203	-0.713736	0.695286	-0.699929	0.163332	0.618397	0.698383	0.360342	-0.366282	-0.149537	0.918410
19820	1.668980	3.544050	9.040230	-0.007130	-0.005173	0.003738	-0.468253	-0.664363	-0.722376	0.695264	-0.699929	0.163425	0.618352	0.698384	0.360418	-0.366400	-0.149532	0.918363
19821	1.669490	3.543510	9.040350	-0.004037	-0.004140	0.001278	-0.464326	-0.661321	-0.717863	0.695256	-0.699928	0.163465	0.618358	0.698396	0.360383	-0.366405	-0.149478	0.918370
19822	1.641320	3.514300	9.027660	-0.006277	0.003296	0.000983	-0.462484	-0.667840	-0.723941	0.695331	-0.699838	0.163531	0.618310	0.698508	0.360249	-0.366344	-0.149379	0.918410
19823	1.640800	3.513750	9.027970	-0.006793	0.006374	-0.006026	-0.465048	-0.662673	-0.720807	0.695316	-0.699871	0.163450	0.618377	0.698474	0.360200	-0.366259	-0.149379	0.918444
19824	1.593620	3.501790	9.063770	-0.003213	0.003517	0.003148	-0.453361	-0.673377	-0.719248	0.695362	-0.699836	0.163405	0.618405	0.698522	0.360058	-0.366124	-0.149320	0.918508
19825	1.571570	3.506540	9.053910	-0.002756	0.006614	0.001599	-0.463395	-0.668655	-0.723760	0.695396	-0.699816	0.163349	0.618404	0.698536	0.360033	-0.366062	-0.149350	0.918528
19826	1.649860	3.529740	9.014290	0.000913	0.006195	-0.003098	-0.452007	-0.663065	-0.722403	0.695291	-0.699998	0.163015	0.618648	0.698328	0.360018	-0.365849	-0.149468	0.918593
19827	1.591030	3.540240	9.025630	0.002738	0.014684	-0.000393	-0.459568	-0.659990	-0.721849	0.695341	-0.699981	0.162875	0.618642	0.698318	0.360046	-0.365764	-0.149593	0.918607
19828	1.600430	3.557090	9.011560	-0.001299	0.010544	0.000884	-0.457231	-0.659245	-0.714610	0.695398	-0.699981	0.162629	0.618783	0.698324	0.359792	-0.365415	-0.149567	0.918750
19829	1.621200	3.551860	9.021840	-0.002300	0.009713	0.000047	-0.465390	-0.662672	-0.724004	0.695433	-0.699968	0.162535	0.618795	0.698325	0.359771	-0.365330	-0.149621	0.918775
19830	1.641720	3.546470	9.032240	-0.005969	0.014034	-0.004162	-0.460406	-0.668795	-0.720938	0.695502	-0.699929	0.162406	0.618837	0.698366	0.359617	-0.365126	-0.149612	0.918858
19831	1.686940	3.557490	8.997190	-0.007030	0.015479	-0.004656	-0.462456	-0.666651	-0.724588	0.695529	-0.699940	0.162242	0.618899	0.698342	0.359560	-0.364971	-0.149673	0.918909
19832	1.707090	3.513220	9.046430	-0.008724	0.024555	-0.011475	-0.462743	-0.669414	-0.724109	0.695510	-0.700043	0.161879	0.619108	0.698217	0.359443	-0.364652	-0.149776	0.919019
19833	1.628450	3.511260	9.031170	-0.004201	0.032613	-0.018931	-0.465685	-0.663341	-0.713786	0.695511	-0.700129	0.161505	0.619258	0.698088	0.359434	-0.364395	-0.149977	0.919088
19834	1.509440	3.531760	9.054120	-0.002204	0.030377	-0.008356	-0.459894	-0.668765	-0.718733	0.695549	-0.700158	0.161218	0.619313	0.698012	0.359486	-0.364229	-0.150196	0.919118
19835	1.492340	3.531810	9.085910	-0.003481	0.019619	-0.008675	-0.463339	-0.660589	-0.723166	0.695565	-0.700191	0.161000	0.619390	0.697953	0.359468	-0.364067	-0.150311	0.919164
19836	1.475680	3.570480	9.078990	-0.001787	0.010541	-0.001854	-0.454949	-0.659362	-0.718994	0.695596	-0.700186	0.160890	0.619423	0.697951	0.359417	-0.363952	-0.150350	0.919203
19837	1.497700	3.536030	9.013720	-0.004735	0.001862	0.004199	-0.471353	-0.667090	-0.724656	0.695628	-0.700156	0.160882	0.619414	0.697984	0.359366	-0.363906	-0.150332	0.919224
19838	1.563040	3.520290	9.044150	-0.006165	-0.005161	0.009195	-0.466532	-0.665880	-0.718490	0.695710	-0.700044	0.161019	0.619331	0.698126	0.359234	-0.363891	-0.150198	0.919252
19839	1.610410	3.531030	9.008920	-0.009772	-0.003113	0.004637	-0.463812	-0.661182	-0.723347	0.695726	-0.700018	0.161059	0.619338	0.698170	0.359136	-0.363848	-0.150110	0.919283
19840	1.618150	3.525280	9.050540	-0.007166	-0.005993	0.008356	-0.461840	-0.659260	-0.723971	0.695797	-0.699906	0.161238	0.619230	0.698310	0.359050	-0.363895	-0.149982	0.919285
19841	1.648120	3.485590	9.026650	-0.005796	0.003307	0.003704	-0.459082	-0.663291	-0.711271	0.695832	-0.699877	0.161217	0.619229	0.698343	0.358990	-0.363833	-0.149966	0.919313
19842	1.639760	3.519070	9.061080	-0.004244	0.005778	-0.001977	-0.456041	-0.661888	-0.718948	0.695848	-0.699872	0.161165	0.619251	0.698347	0.358942	-0.363763	-0.149968	0.919340
19843	1.595730	3.529070	9.041090	0.000853	0.008476	-0.002758	-0.458806	-0.666834	-0.728271	0.695861	-0.699880	0.161073	0.619270	0.698325	0.358953	-0.363706	-0.150034	0.919352
19844	1.627440	3.502380	9.075580	0.003795	0.013249	0.000097	-0.464258	-0.663587	-0.715667	0.695889	-0.699909	0.160829	0.619376	0.698279	0.358861	-0.363473	-0.150114	0.919431
19845	1.582810	3.513080	9.055410	0.008893	0.015948	-0.000684	-0.465017	-0.665571	-0.721843	0.695942	-0.699892	0.160674	0.619352	0.698258	0.358941	-0.363412	-0.150288	0.919426
19846	1.549380	3.502080	9.059460	0.007918	0.012025	0.002759	-0.452604	-0.660444	-0.718533	0.696006	-0.699835	0.160641	0.619245	0.698281	0.359081	-0.363470	-0.150446	0.919378
19847	1.597630	3.564950	9.043950	0.004373	0.011798	-0.002143	-0.455759	-0.668611	-0.723786	0.696035	-0.699834	0.160520	0.619247	0.698257	0.359123	-0.363411	-0.150561	0.919382
19848	1.590130	3.531690	9.041050	0.006978	0.008918	0.001578	-0.458413	-0.662849	-0.721011	0.696016	-0.699914	0.160256	0.619383	0.698153	0.359091	-0.363216	-0.150674	0.919441
19849	1.553250	3.537210	9.062250	-0.000182	0.006831	0.001026	-0.457834	-0.660362	-0.714275	0.696047	-0.699899	0.160190	0.619381	0.698158	0.359086	-0.363162	-0.150722	0.919454
19850	1.584990	3.548970	9.058210	0.001362	0.005395	0.004252	-0.454459	-0.659260	-0.717868	0.696085	-0.699876	0.160126	0.619372	0.698171	0.359075	-0.363103	-0.150769	0.919470
19851	1.552620	3.537170	9.062380	-0.001579	0.000621	0.001399	-0.453131	-0.661516	-0.721595	0.696095	-0.699867	0.160119	0.619373	0.698180	0.359056	-0.363083	-0.150764	0.919478
19852	1.541530	3.558780	9.038150	-0.003158	0.001242	0.002797	-0.454122	-0.660648	-0.720363	0.696106	-0.699883	0.160000	0.619472	0.698175	0.358896	-0.362893	-0.150714	0.919562
19853	1.606540	3.543370	9.068550	-0.001518	-0.001656	0.001057	-0.456553	-0.669785	-0.717580	0.696105	-0.699881	0.160012	0.619475	0.698182	0.358877	-0.362888	-0.150693	0.919567
19854	1.599470	3.548090	9.027200	-0.002544	0.000604	-0.004064	-0.462172	-0.661524	-0.719560	0.695998	-0.700028	0.159837	0.619660	0.698029	0.358856	-0.362780	-0.150718	0.919606
19855	1.631960	3.520960	9.061750	-0.003122	0.002057	-0.001828	-0.464064	-0.662437	-0.719754	0.695992	-0.700041	0.159803	0.619690	0.698017	0.358827	-0.362738	-0.150712	0.919623
19856	1.617040	3.520960	9.093180	-0.001604	0.003713	-0.002885	-0.467050	-0.668820	-0.711954	0.696033	-0.699990	0.159851	0.619632	0.698071	0.358821	-0.362758	-0.150702	0.919617
19857	1.594770	3.525910	9.083230	-0.001725	0.008268	-0.002201	-0.463151	-0.664058	-0.721680	0.696048	-0.699996	0.159759	0.619660	0.698055	0.358805	-0.362682	-0.150750	0.919639
19858	1.550800	3.535910	9.063180	-0.001182	0.005999	0.000188	-0.457804	-0.661677	-0.722376	0.696034	-0.700006	0.159774	0.619606	0.698023	0.358960	-0.362800	-0.150852	0.919576
19859	1.521710	3.545580	9.011840	-0.004701	0.002679	-0.000430	-0.460395	-0.666365	-0.722195	0.696040	-0.700008	0.159740	0.619632	0.698023	0.358916	-0.362746	-0.150840	0.919599
19860	1.575560	3.551740	9.018050	-0.006677	-0.002078	0.002178	-0.457874	-0.668847	-0.721938	0.696045	-0.700007	0.159725	0.619683	0.698042	0.358790	-0.362650	-0.150755	0.919651
19861	1.565880	3.495770	9.070930	-0.003555	-0.004136	0.004006	-0.458717	-0.661870	-0.718204	0.696053	-0.699989	0.159769	0.619673	0.698072	0.358749	-0.362650	-0.150703	0.919659
19862	1.609180	3.524010	9.052640	-0.001976	-0.004757	0.002608	-0.462244	-0.663742	-0.722004	0.696003	-0.700045	0.159740	0.619740	0.698020	0.358735	-0.362632	-0.150683	0.919670
19863	1.573280	3.528850	9.073920	-0.006159	-0.001254	0.000284	-0.456328	-0.671167	-0.716078	0.695999	-0.700048	0.159744	0.619766	0.698027	0.358676	-0.362596	-0.150634	0.919692
19864	1.587890	3.528190	9.042810	-0.004641	0.000402	-0.000772	-0.460721	-0.666727	-0.727328	0.695912	-0.700156	0.159647	0.619877	0.697911	0.358711	-0.362573	-0.150670	0.919695
19865	1.581120	3.532500	9.001590	-0.008135	-0.006010	0.002891	-0.456855	-0.665390	-0.724083	0.695907	-0.700149	0.159703	0.619892	0.697939	0.358630	-0.362557	-0.150574	0.919717
19866	1.617660	3.526440	8.980660	-0.009799	-0.000019	0.000348	-0.456106	-0.657260	-0.725977	0.695903	-0.700172	0.159619	0.620004	0.697937	0.358439	-0.362373	-0.150474	0.919806
19867	1.638220	3.549520	9.066720	-0.011247	-0.000042	-0.007846	-0.455285	-0.663464	-0.717307	0.695852	-0.700231	0.159582	0.620106	0.697895	0.358346	-0.362296	-0.150398	0.919849
19868	1.619830	3.536630	9.040040	-0.014938	0.007380	-0.016348	-0.463903	-0.660317	-0.722121	0.695805	-0.700321	0.159393	0.620320	0.697825	0.358111	-0.362021	-0.150301	0.919973
19869	1.744840	3.493320	9.042850	-0.012470	0.016059	-0.025134	-0.460433	-0.660103	-0.713922	0.695705	-0.700476	0.159144	0.620546	0.697663	0.358034	-0.361823	-0.150329	0.920046
19870	1.662850	3.469370	9.083110	-0.010644	0.028472	-0.031345	-0.452998	-0.668155	-0.721280	0.695653	-0.700590	0.158875	0.620711	0.697526	0.358016	-0.361641	-0.150439	0.920100
19871	1.632480	3.529810	9.052460	-0.007697	0.037167	-0.037409	-0.453164	-0.665381	-0.722081	0.695553	-0.700798	0.158389	0.621006	0.697271	0.358001	-0.361327	-0.150648	0.920189
19872	1.548460	3.544890	9.054240	-0.008254	0.035531	-0.030899	-0.455623	-0.666435	-0.724244	0.695390	-0.701101	0.157762	0.621431	0.696916	0.357956	-0.360910	-0.150881	0.920314
19873	1.422110	3.530980	9.074270	-0.013290	0.030558	-0.030477	-0.461169	-0.667759	-0.718620	0.695309	-0.701272	0.157361	0.621698	0.696717	0.357879	-0.360606	-0.151005	0.920413
19874	1.455670	3.486390	9.092410	-0.010635	0.021479	-0.018181	-0.460152	-0.669812	-0.717276	0.695211	-0.701438	0.157055	0.621918	0.696525	0.357869	-0.360415	-0.151119	0.920469
19875	1.528310	3.526250	9.070760	-0.007968	0.016317	-0.014796	-0.462375	-0.668976	-0.722043	0.695176	-0.701521	0.156840	0.622057	0.696428	0.357816	-0.360244	-0.151182	0.920526
19876	1.530590	3.508910	9.054120	-0.005363	0.013431	-0.011067	-0.460140	-0.659215	-0.720474	0.695058	-0.701674	0.156679	0.622183	0.696245	0.357955	-0.360255	-0.151317	0.920500
19877	1.542590	3.537450	9.098830	-0.004819	0.011159	-0.008675	-0.453778	-0.663382	-0.726180	0.695041	-0.701722	0.156534	0.622267	0.696185	0.357924	-0.360140	-0.151366	0.920537
19878	1.542630	3.508250	9.023510	-0.002797	0.009722	-0.002707	-0.454793	-0.655954	-0.729310	0.695108	-0.701672	0.156466	0.622265	0.696237	0.357828	-0.360015	-0.151366	0.920586
19879	1.559170	3.519910	9.051030	-0.003380	0.011174	-0.000471	-0.460043	-0.664233	-0.730891	0.695143	-0.701663	0.156350	0.622288	0.696233	0.357796	-0.359908	-0.151424	0.920618
19880	1.498060	3.478830	9.042290	-0.006517	0.009310	0.006611	-0.456873	-0.664233	-0.722902	0.695343	-0.701466	0.156344	0.622207	0.696457	0.357501	-0.359662	-0.151308	0.920733
19881	1.508960	3.456690	9.066730	0.003020	-0.000605	0.006809	-0.462738	-0.668735	-0.727517	0.695382	-0.701423	0.156363	0.622156	0.696495	0.357515	-0.359676	-0.151327	0.920724
19882	1.547800	3.502500	9.065550	0.003955	0.002506	0.007990	-0.459988	-0.666139	-0.722415	0.695431	-0.701370	0.156383	0.622085	0.696540	0.357552	-0.359703	-0.151369	0.920707
19883	1.631480	3.470850	9.047450	0.009594	0.002937	0.009612	-0.460003	-0.665864	-0.730193	0.695499	-0.701303	0.156380	0.621990	0.696588	0.357622	-0.359734	-0.151459	0.920680
19884	1.594470	3.515440	9.029830	0.009506	0.008318	0.005663	-0.461436	-0.666689	-0.722136	0.695571	-0.701239	0.156347	0.621908	0.696630	0.357682	-0.359737	-0.151560	0.920662
19885	1.572580	3.482510	9.058000	0.009379	0.012876	0.006344	-0.455999	-0.662060	-0.728868	0.695655	-0.701179	0.156241	0.621837	0.696656	0.357755	-0.359697	-0.151718	0.920652
19886	1.514000	3.493490	9.068750	0.011462	0.009162	0.011970	-0.460033	-0.666360	-0.717550	0.695780	-0.701060	0.156220	0.621703	0.696751	0.357802	-0.359688	-0.151829	0.920637
19887	1.488020	3.516340	9.075390	0.011110	0.004600	0.008553	-0.464498	-0.662980	-0.729447	0.695848	-0.700998	0.156198	0.621611	0.696790	0.357888	-0.359716	-0.151941	0.920608
19888	1.530840	3.545410	9.057040	0.001852	0.002302	0.011278	-0.457487	-0.668267	-0.724390	0.695943	-0.700878	0.156310	0.621458	0.696907	0.357924	-0.359795	-0.151955	0.920574
19889	1.572010	3.485010	9.057140	0.012090	0.001513	0.018308	-0.458926	-0.669493	-0.725716	0.696061	-0.700752	0.156353	0.621294	0.697013	0.358004	-0.359852	-0.152052	0.920536
19890	1.578460	3.519610	9.059750	0.011399	0.011445	0.012303	-0.457453	-0.670790	-0.717878	0.696132	-0.700708	0.156230	0.621226	0.697015	0.358118	-0.359831	-0.152244	0.920513
19891	1.562780	3.559390	9.052220	0.014458	0.011666	0.014478	-0.463677	-0.672826	-0.722419	0.696262	-0.700593	0.156165	0.621080	0.697090	0.358226	-0.359832	-0.152429	0.920482
19892	1.508700	3.553670	9.045700	0.013064	0.005450	0.014853	-0.453487	-0.665571	-0.722694	0.696269	-0.700597	0.156121	0.620979	0.697033	0.358511	-0.359993	-0.152673	0.920378
19893	1.487170	3.559520	9.035200	0.009486	0.004406	0.014569	-0.453851	-0.665381	-0.723038	0.696373	-0.700493	0.156122	0.620850	0.697115	0.358575	-0.360014	-0.152773	0.920353
19894	1.610360	3.534710	9.054510	0.007676	-0.004098	0.011874	-0.452212	-0.665711	-0.722212	0.696405	-0.700467	0.156096	0.620819	0.697131	0.358597	-0.360004	-0.152821	0.920349
19895	1.610690	3.535230	9.054240	0.007946	0.005847	0.011334	-0.457049	-0.661335	-0.727808	0.696494	-0.700384	0.156072	0.620719	0.697193	0.358651	-0.360005	-0.152922	0.920332
19896	1.573980	3.540890	9.075220	0.004390	0.008717	0.002136	-0.461911	-0.664635	-0.724229	0.696556	-0.700352	0.155939	0.620732	0.697211	0.358593	-0.359864	-0.152984	0.920377
19897	1.491610	3.505700	9.055940	0.002891	0.003962	0.007481	-0.460404	-0.653506	-0.724647	0.696614	-0.700298	0.155919	0.620676	0.697254	0.358606	-0.359846	-0.153035	0.920376
19898	1.462650	3.506290	9.118280	0.005677	-0.005762	0.010197	-0.458983	-0.662052	-0.723561	0.696743	-0.700119	0.156148	0.620479	0.697456	0.358554	-0.359937	-0.152933	0.920357
19899	1.484570	3.578900	9.051080	0.005696	-0.008858	0.014484	-0.459269	-0.668940	-0.724690	0.696799	-0.700036	0.156271	0.620365	0.697544	0.358581	-0.360025	-0.152914	0.920326
19900	1.533530	3.551850	9.054060	0.000617	-0.014655	0.019546	-0.458577	-0.662308	-0.720847	0.696863	-0.699927	0.156475	0.620234	0.697676	0.358550	-0.360127	-0.152809	0.920303
19901	1.441810	3.566990	9.085800	-0.001821	-0.022518	0.023710	-0.457670	-0.665128	-0.720222	0.696927	-0.699800	0.156757	0.620082	0.697840	0.358493	-0.360264	-0.152642	0.920277
19902	1.485870	3.505500	9.085870	-0.003678	-0.031833	0.025637	-0.461781	-0.659795	-0.729135	0.696955	-0.699687	0.157133	0.619926	0.698004	0.358444	-0.360478	-0.152409	0.920232
19903	1.562120	3.494330	9.043310	-0.004056	-0.033300	0.017933	-0.457136	-0.668645	-0.723117	0.696945	-0.699617	0.157493	0.619823	0.698130	0.358376	-0.360677	-0.152151	0.920197
19904	1.709620	3.463270	9.072560	0.000381	-0.023769	0.015439	-0.457139	-0.670292	-0.726790	0.696974	-0.699529	0.157755	0.619727	0.698263	0.358284	-0.360784	-0.151949	0.920188
19905	1.715620	3.484680	9.016610	-0.001280	-0.017772	0.012888	-0.454310	-0.666738	-0.722210	0.696988	-0.699470	0.157955	0.619649	0.698350	0.358249	-0.360892	-0.151818	0.920168
19906	1.687080	3.523630	9.040440	0.001640	-0.002901	-0.001736	-0.457765	-0.664065	-0.723106	0.696910	-0.699577	0.157821	0.619778	0.698235	0.358251	-0.360820	-0.151855	0.920190
19907	1.622040	3.539190	9.009910	0.004560	0.004968	-0.003167	-0.452622	-0.663287	-0.717913	0.696907	-0.699596	0.157753	0.619791	0.698200	0.358295	-0.360805	-0.151924	0.920184
19908	1.555910	3.545110	9.093580	0.000920	0.006204	-0.003107	-0.457103	-0.665830	-0.725325	0.696878	-0.699661	0.157592	0.619882	0.698120	0.358295	-0.360703	-0.151999	0.920212
19909	1.509710	3.504540	9.053390	-0.001060	0.001446	-0.000498	-0.456197	-0.667790	-0.720444	0.696878	-0.699667	0.157565	0.619898	0.698112	0.358283	-0.360677	-0.152005	0.920221
19910	1.552970	3.494350	9.073690	0.000060	-0.002279	-0.000340	-0.459789	-0.664253	-0.722466	0.696823	-0.699740	0.157484	0.619984	0.698035	0.358283	-0.360634	-0.152022	0.920235
19911	1.570380	3.545050	9.062290	0.003120	-0.002060	0.001832	-0.461056	-0.666576	-0.721126	0.696825	-0.699736	0.157497	0.619969	0.698037	0.358305	-0.360658	-0.152033	0.920224
19912	1.584930	3.545100	9.030940	0.001560	0.002471	-0.005680	-0.458802	-0.671997	-0.715357	0.696773	-0.699798	0.157449	0.620018	0.697966	0.358359	-0.360673	-0.152074	0.920211
19913	1.542140	3.516520	9.049210	-0.003560	-0.004136	0.004005	-0.462412	-0.660246	-0.720396	0.696780	-0.699782	0.157488	0.620012	0.697993	0.358317	-0.360670	-0.152024	0.920221
19914	1.538250	3.571740	9.027820	-0.004560	-0.004968	0.003168	-0.452369	-0.664354	-0.720953	0.696716	-0.699834	0.157538	0.620030	0.697943	0.358384	-0.360762	-0.152014	0.920186
19915	1.539290	3.532570	9.066440	-0.005080	-0.005791	0.005060	-0.462675	-0.667638	-0.726906	0.696724	-0.699813	0.157597	0.620021	0.697979	0.358327	-0.360762	-0.151942	0.920198
19916	1.561850	3.526800	9.076700	-0.007640	-0.009093	0.009902	-0.454854	-0.660807	-0.719459	0.696735	-0.699792	0.157642	0.620037	0.698023	0.358214	-0.360713	-0.151836	0.920235
19917	1.578040	3.487300	9.084000	-0.003480	-0.009506	0.007946	-0.463392	-0.664766	-0.724774	0.696747	-0.699757	0.157745	0.620003	0.698078	0.358167	-0.360748	-0.151750	0.920235
19918	1.608950	3.447950	9.059870	-0.000360	-0.011566	0.009777	-0.459133	-0.669150	-0.726460	0.696771	-0.699702	0.157881	0.619943	0.698153	0.358124	-0.360805	-0.151653	0.920229
19919	1.612450	3.498720	9.079660	0.004080	-0.002042	0.007291	-0.462837	-0.658153	-0.716732	0.696807	-0.699660	0.157913	0.619886	0.698192	0.358148	-0.360835	-0.151672	0.920214
19920	1.633930	3.532520	9.051140	0.002060	-0.000614	0.001334	-0.455953	-0.666195	-0.727305	0.696804	-0.699657	0.157938	0.619868	0.698194	0.358175	-0.360871	-0.151677	0.920199
19921	1.591260	3.504430	9.069210	0.008180	-0.000178	0.005677	-0.461950	-0.667529	-0.723878	0.696836	-0.699623	0.157947	0.619808	0.698214	0.358239	-0.360913	-0.151737	0.920173
19922	1.515310	3.542300	9.014210	0.008680	0.003738	-0.000499	-0.462005	-0.663130	-0.719492	0.696832	-0.699650	0.157843	0.619835	0.698168	0.358282	-0.360873	-0.151826	0.920174
19923	1.543630	3.571660	9.026930	0.007719	-0.003278	0.007228	-0.456946	-0.667424	-0.723104	0.696862	-0.699611	0.157885	0.619766	0.698200	0.358340	-0.360934	-0.151862	0.920144
19924	1.566250	3.528340	9.075340	0.004139	-0.004319	0.006950	-0.455675	-0.664056	-0.718323	0.696860	-0.699606	0.157916	0.619737	0.698201	0.358388	-0.360988	-0.151880	0.920120
19925	1.524000	3.538600	9.054870	0.000638	-0.010730	0.010613	-0.459689	-0.665935	-0.721175	0.696884	-0.699554	0.158040	0.619669	0.698267	0.358375	-0.361057	-0.151814	0.920104
19926	1.593740	3.544850	9.029490	-0.000422	-0.009283	0.010115	-0.464398	-0.660067	-0.727619	0.696874	-0.699552	0.158096	0.619655	0.698276	0.358383	-0.361102	-0.151783	0.920091
19927	1.620930	3.483950	9.060940	0.000579	-0.008450	0.010951	-0.462733	-0.659407	-0.714924	0.696908	-0.699494	0.158199	0.619586	0.698344	0.358369	-0.361154	-0.151733	0.920079
19928	1.592430	3.523210	9.084690	0.008220	-0.006358	0.014234	-0.459062	-0.659456	-0.721025	0.697012	-0.699343	0.158413	0.619388	0.698506	0.358396	-0.361294	-0.151687	0.920031
19929	1.550350	3.533610	9.064150	0.001059	-0.008438	0.013678	-0.457612	-0.666026	-0.725388	0.697063	-0.699266	0.158526	0.619297	0.698594	0.358382	-0.361350	-0.151640	0.920017
19930	1.570800	3.477770	9.054080	0.004236	-0.012775	0.015165	-0.456508	-0.660301	-0.725381	0.697125	-0.699174	0.158657	0.619204	0.698702	0.358333	-0.361391	-0.151562	0.920014
19931	1.585820	3.545410	9.059460	0.003716	-0.013595	0.017055	-0.461693	-0.661133	-0.724303	0.697179	-0.699081	0.158830	0.619080	0.698809	0.358338	-0.361499	-0.151497	0.919982
19932	1.573070	3.545770	9.090370	0.005294	-0.014218	0.015656	-0.452884	-0.659409	-0.726523	0.697275	-0.698946	0.159006	0.618951	0.698970	0.358246	-0.361535	-0.151379	0.919988
19933	1.535810	3.539290	9.052600	0.006411	-0.017939	0.015808	-0.462422	-0.658039	-0.722188	0.697305	-0.698868	0.159214	0.618827	0.699064	0.358277	-0.361689	-0.151302	0.919940
19934	1.610510	3.529190	9.009620	0.012108	-0.019789	0.017071	-0.464036	-0.660333	-0.722586	0.697402	-0.698721	0.159436	0.618667	0.699238	0.358215	-0.361775	-0.151182	0.919925
19935	1.562260	3.535440	9.061400	0.008584	-0.023103	0.016451	-0.463523	-0.664289	-0.721411	0.697418	-0.698646	0.159694	0.618530	0.699333	0.358264	-0.361978	-0.151084	0.919862
19936	1.569660	3.480690	9.082010	0.018845	-0.026975	0.027715	-0.460639	-0.664656	-0.715815	0.697507	-0.698468	0.160080	0.618244	0.699529	0.358377	-0.362295	-0.151002	0.919750
19937	1.579860	3.515450	9.083850	0.012258	-0.030504	0.024926	-0.468507	-0.665476	-0.721103	0.697548	-0.698346	0.160436	0.618035	0.699678	0.358446	-0.362573	-0.150878	0.919661
19938	1.612700	3.477300	9.058840	0.017822	-0.024712	0.022586	-0.458887	-0.667091	-0.718259	0.697557	-0.698264	0.160752	0.617822	0.699763	0.358647	-0.362919	-0.150861	0.919527
19939	1.611790	3.495480	9.074920	0.016243	-0.024081	0.023976	-0.463147	-0.670925	-0.722856	0.697615	-0.698138	0.161047	0.617605	0.699900	0.358755	-0.363177	-0.150810	0.919434
19940	1.560850	3.528850	9.029350	0.019471	-0.030687	0.025107	-0.466067	-0.664902	-0.726244	0.697586	-0.698109	0.161301	0.617460	0.699933	0.358939	-0.363479	-0.150794	0.919317
19941	1.617850	3.575190	8.995550	0.017354	-0.027791	0.024112	-0.461826	-0.666878	-0.721716	0.697631	-0.697988	0.161629	0.617238	0.700068	0.359057	-0.363769	-0.150725	0.919214
19942	1.668250	3.548840	8.997670	0.012659	-0.025102	0.023684	-0.466839	-0.659035	-0.715715	0.697686	-0.697869	0.161905	0.617061	0.700208	0.359089	-0.363964	-0.150627	0.919153
19943	1.674490	3.561520	9.055380	0.006961	-0.023245	0.022424	-0.469738	-0.662654	-0.717361	0.697737	-0.697753	0.162185	0.616889	0.700347	0.359114	-0.364158	-0.150517	0.919094
19944	1.673770	3.549540	8.996370	0.004826	-0.017275	0.017164	-0.466066	-0.658329	-0.717001	0.697782	-0.697636	0.162496	0.616698	0.700486	0.359170	-0.364396	-0.150411	0.919017
19945	1.751360	3.550620	9.011970	-0.002447	-0.014792	0.017308	-0.465301	-0.671266	-0.708633	0.697832	-0.697543	0.162680	0.616596	0.700604	0.359116	-0.364473	-0.150295	0.919005
19946	1.720190	3.538670	9.016120	-0.001610	-0.000174	0.006011	-0.460624	-0.665011	-0.710916	0.697792	-0.697580	0.162692	0.616590	0.700556	0.359218	-0.364558	-0.150345	0.918963
19947	1.688060	3.526850	9.020410	-0.001664	0.002102	0.006353	-0.468971	-0.668220	-0.716579	0.697836	-0.697538	0.162682	0.616561	0.700596	0.359190	-0.364523	-0.150352	0.918976
19948	1.677190	3.509870	9.034840	-0.002740	0.006625	0.001591	-0.467292	-0.658449	-0.721077	0.697780	-0.697619	0.162576	0.616622	0.700494	0.359285	-0.364527	-0.150454	0.918958
19949	1.676360	3.509660	9.035070	-0.001325	0.012826	0.001218	-0.460367	-0.661188	-0.724626	0.697832	-0.697597	0.162448	0.616627	0.700497	0.359269	-0.364420	-0.150539	0.918987
19950	1.646050	3.548830	9.059320	0.000358	0.007646	-0.000864	-0.461503	-0.664432	-0.711452	0.697914	-0.697531	0.162381	0.616618	0.700565	0.359153	-0.364279	-0.150531	0.919044
19951	1.616480	3.520230	9.046680	-0.001828	0.015890	-0.005778	-0.461928	-0.658295	-0.725088	0.697933	-0.697553	0.162200	0.616674	0.700520	0.359144	-0.364146	-0.150634	0.919079
19952	1.611320	3.537070	9.064040	-0.002848	0.011179	0.002272	-0.463452	-0.660753	-0.718312	0.697986	-0.697532	0.162064	0.616701	0.700530	0.359080	-0.364000	-0.150688	0.919129
19953	1.599430	3.558580	9.040010	-0.004855	0.009516	0.000604	-0.471038	-0.667379	-0.716956	0.698021	-0.697520	0.161964	0.616724	0.700534	0.359032	-0.363893	-0.150724	0.919165
19954	1.631240	3.531040	9.074760	-0.004944	0.010991	0.005558	-0.459474	-0.658168	-0.713051	0.698062	-0.697491	0.161910	0.616704	0.700552	0.359032	-0.363848	-0.150776	0.919174
19955	1.602060	3.502010	9.062200	-0.003368	0.010363	0.004160	-0.463747	-0.666574	-0.717912	0.698123	-0.697453	0.161816	0.616696	0.700578	0.358992	-0.363745	-0.150829	0.919206
19956	1.626480	3.518060	9.016890	-0.003798	0.008072	0.001095	-0.462702	-0.665202	-0.725666	0.698118	-0.697485	0.161696	0.616750	0.700533	0.358987	-0.363662	-0.150889	0.919229
19957	1.600510	3.539890	9.024090	-0.003207	0.003533	0.003135	-0.463007	-0.667915	-0.714893	0.698147	-0.697464	0.161661	0.616750	0.700553	0.358951	-0.363607	-0.150896	0.919250
19958	1.639360	3.546280	9.061530	-0.003278	0.008889	-0.000795	-0.462748	-0.659483	-0.710227	0.698131	-0.697518	0.161499	0.616835	0.700484	0.358938	-0.363493	-0.150968	0.919283
19959	1.635410	3.533680	9.003370	-0.006377	0.007869	0.001657	-0.462864	-0.663084	-0.725746	0.698167	-0.697501	0.161418	0.616856	0.700498	0.358875	-0.363389	-0.150983	0.919322
19960	1.620160	3.533490	9.035010	-0.004281	0.008058	-0.001630	-0.467111	-0.656366	-0.727567	0.698178	-0.697511	0.161325	0.616900	0.700482	0.358831	-0.363293	-0.151007	0.919356
19961	1.604880	3.533190	9.066700	-0.009440	0.007652	-0.000505	-0.465161	-0.658493	-0.720501	0.698199	-0.697510	0.161238	0.616947	0.700485	0.358743	-0.363171	-0.150999	0.919405
19962	1.612060	3.498470	9.032940	-0.005321	0.006425	0.002149	-0.459841	-0.661746	-0.723217	0.698323	-0.697379	0.161269	0.616880	0.700634	0.358568	-0.363048	-0.150913	0.919468
19963	1.618500	3.493150	9.074620	-0.004281	0.008060	-0.001631	-0.464425	-0.664343	-0.719405	0.698339	-0.697385	0.161174	0.616917	0.700622	0.358529	-0.362955	-0.150944	0.919500
19964	1.595730	3.536620	9.026220	-0.003278	0.008891	-0.000797	-0.464822	-0.654155	-0.721301	0.698359	-0.697395	0.161043	0.616973	0.700603	0.358468	-0.362821	-0.150980	0.919547
19965	1.644870	3.559860	9.049440	-0.000699	0.009095	-0.001359	-0.466574	-0.655483	-0.716957	0.698380	-0.697398	0.160940	0.616995	0.700587	0.358461	-0.362742	-0.151043	0.919567
19966	1.598170	3.519210	9.009570	-0.004265	0.004980	0.002640	-0.458097	-0.659474	-0.722806	0.698482	-0.697279	0.161012	0.616908	0.700720	0.358352	-0.362695	-0.150973	0.919597
19967	1.561660	3.524120	9.031060	-0.006845	0.004777	0.003202	-0.464009	-0.665985	-0.716188	0.698516	-0.697256	0.160965	0.616920	0.700746	0.358281	-0.362609	-0.150962	0.919633
19968	1.604670	3.513310	9.051470	-0.002634	0.002074	0.000903	-0.459897	-0.650650	-0.721981	0.698499	-0.697290	0.160891	0.616978	0.700710	0.358250	-0.362542	-0.150971	0.919658
19969	1.651720	3.485660	9.054720	-0.002244	0.003562	0.008579	-0.462124	-0.661844	-0.712669	0.698562	-0.697230	0.160875	0.616936	0.700766	0.358212	-0.362492	-0.150984	0.919676
19970	1.604300	3.512790	9.051740	-0.001165	0.006001	0.000188	-0.459552	-0.658838	-0.728112	0.698606	-0.697196	0.160834	0.616931	0.700800	0.358156	-0.362417	-0.150986	0.919705
19971	1.611070	3.507890	9.093200	0.001913	0.003137	0.006622	-0.458770	-0.657334	-0.721951	0.698655	-0.697151	0.160814	0.616887	0.700836	0.358160	-0.362396	-0.151026	0.919707
19972	1.531250	3.562390	9.055640	0.001431	0.003123	0.003898	-0.465911	-0.664335	-0.723208	0.698746	-0.697073	0.160756	0.616877	0.700921	0.358013	-0.362238	-0.150993	0.919774
19973	1.557160	3.540220	9.048590	0.000605	-0.007622	0.006313	-0.464556	-0.665095	-0.716127	0.698755	-0.697047	0.160835	0.616841	0.700957	0.358004	-0.362284	-0.150947	0.919764
19974	1.569090	3.517990	9.072890	-0.005558	-0.008859	0.006601	-0.463120	-0.669342	-0.725018	0.698719	-0.697061	0.160928	0.616843	0.700959	0.357995	-0.362348	-0.150870	0.919751
19975	1.595960	3.495240	9.065890	-0.003912	-0.014845	0.009134	-0.464957	-0.661250	-0.726529	0.698718	-0.697026	0.161083	0.616804	0.701022	0.357941	-0.362417	-0.150743	0.919745
19976	1.622840	3.472610	9.058830	-0.002496	-0.008640	0.008761	-0.469627	-0.667887	-0.725381	0.698737	-0.696992	0.161147	0.616792	0.701074	0.357859	-0.362401	-0.150655	0.919766
19977	1.605200	3.528350	9.068530	0.000658	-0.009898	0.005969	-0.467695	-0.660563	-0.716747	0.698735	-0.696972	0.161245	0.616758	0.701108	0.357851	-0.362462	-0.150594	0.919751
19978	1.635720	3.489140	9.044260	0.002143	-0.009052	0.009525	-0.467292	-0.657635	-0.720258	0.698742	-0.696929	0.161400	0.616670	0.701159	0.357901	-0.362599	-0.150550	0.919705
19979	1.690060	3.534500	9.011320	0.009240	-0.001628	0.006140	-0.463726	-0.664339	-0.714340	0.698771	-0.696895	0.161423	0.616604	0.701181	0.357973	-0.362656	-0.150607	0.919673
19980	1.646750	3.545660	8.990860	0.010122	0.006838	0.003386	-0.457349	-0.667236	-0.721706	0.698790	-0.696882	0.161392	0.616546	0.701167	0.358101	-0.362717	-0.150732	0.919628
19981	1.631480	3.546810	9.021970	0.009533	0.011378	0.001345	-0.460347	-0.658350	-0.722391	0.698837	-0.696862	0.161278	0.616512	0.701155	0.358183	-0.362685	-0.150882	0.919616
19982	1.587400	3.557860	9.001680	0.006003	0.008068	0.000732	-0.465340	-0.656719	-0.722697	0.698849	-0.696891	0.161100	0.616571	0.701104	0.358179	-0.362560	-0.150984	0.919649
19983	1.586860	3.558200	9.001640	0.001471	0.003926	-0.000714	-0.461063	-0.662739	-0.718511	0.698856	-0.696896	0.161046	0.616582	0.701090	0.358190	-0.362530	-0.151025	0.919654
19984	1.597690	3.536170	9.026050	-0.003674	0.000442	0.004680	-0.462147	-0.660933	-0.715913	0.698899	-0.696851	0.161059	0.616565	0.701145	0.358109	-0.362475	-0.150979	0.919683
19985	1.590860	3.540690	8.984750	-0.002136	-0.000989	0.007895	-0.460680	-0.658296	-0.719984	0.698941	-0.696803	0.161082	0.616528	0.701196	0.358073	-0.362457	-0.150960	0.919694
19986	1.587860	3.479950	9.079130	-0.007257	-0.000591	0.004408	-0.468321	-0.660931	-0.722595	0.698948	-0.696797	0.161077	0.616556	0.701215	0.357989	-0.362395	-0.150903	0.919727
19987	1.616660	3.507850	9.092220	-0.004663	-0.003468	0.008115	-0.462549	-0.659959	-0.723502	0.698982	-0.696752	0.161123	0.616527	0.701271	0.357929	-0.362379	-0.150849	0.919742
19988	1.599410	3.495670	9.065110	-0.000560	-0.001618	0.006499	-0.467081	-0.662056	-0.725939	0.699045	-0.696675	0.161183	0.616465	0.701358	0.357865	-0.362363	-0.150800	0.919757
19989	1.610590	3.512230	9.050830	-0.000025	-0.003880	0.008879	-0.476408	-0.659275	-0.713313	0.699083	-0.696625	0.161236	0.616414	0.701413	0.357847	-0.362378	-0.150776	0.919755
19990	1.636320	3.528660	9.005180	0.002594	-0.002877	0.003707	-0.461692	-0.659274	-0.714676	0.699110	-0.696561	0.161392	0.616298	0.701481	0.357912	-0.362521	-0.150754	0.919702
19991	1.597350	3.512580	9.081900	0.000563	-0.008419	0.010918	-0.470026	-0.671001	-0.716709	0.699144	-0.696503	0.161495	0.616230	0.701550	0.357896	-0.362572	-0.150703	0.919690
19992	1.623680	3.528900	9.036170	0.000654	-0.009895	0.005967	-0.459641	-0.668330	-0.716339	0.699063	-0.696564	0.161585	0.616232	0.701491	0.358006	-0.362724	-0.150695	0.919632
19993	1.624780	3.528700	9.036050	-0.002499	-0.008635	0.008757	-0.464578	-0.659744	-0.720432	0.699082	-0.696522	0.161681	0.616190	0.701548	0.357965	-0.362758	-0.150621	0.919630
19994	1.647260	3.523010	9.046170	-0.006579	-0.006604	0.001496	-0.461381	-0.665717	-0.721356	0.699007	-0.696599	0.161673	0.616281	0.701484	0.357936	-0.362749	-0.150564	0.919643
19995	1.673330	3.500280	9.039270	-0.003569	-0.004110	0.003996	-0.463029	-0.657665	-0.722629	0.699014	-0.696584	0.161711	0.616276	0.701510	0.357894	-0.362745	-0.150514	0.919653
19996	1.633670	3.522540	9.077620	-0.001524	-0.001647	0.001054	-0.459423	-0.652391	-0.722471	0.699009	-0.696597	0.161676	0.616318	0.701504	0.357833	-0.362682	-0.150485	0.919683
19997	1.598310	3.498710	9.023370	-0.002097	-0.000186	0.003283	-0.463251	-0.655572	-0.721920	0.699025	-0.696581	0.161675	0.616313	0.701522	0.357806	-0.362659	-0.150473	0.919694
19998	1.588090	3.443250	9.076210	0.000965	0.000030	0.005442	-0.466272	-0.657382	-0.717930	0.699133	-0.696466	0.161704	0.616246	0.701650	0.357670	-0.362565	-0.150410	0.919741
19999	1.638280	3.505360	9.060480	0.005618	-0.003462	0.010473	-0.471440	-0.660932	-0.723275	0.699182	-0.696404	0.161758	0.616163	0.701707	0.357701	-0.362612	-0.150429	0.919720
20000	1.644960	3.578040	9.024570	0.003962	0.005601	0.003675	-0.464288	-0.659655	-0.713341	0.699250	-0.696329	0.161792	0.616072	0.701774	0.357727	-0.362636	-0.150465	0.919704
20001	1.681120	3.534520	9.041710	0.011233	0.003110	0.003535	-0.462812	-0.662175	-0.721785	0.699280	-0.696305	0.161761	0.616017	0.701775	0.357820	-0.362672	-0.150569	0.919673
20002	1.691310	3.551890	9.027290	0.003949	0.008679	-0.000593	-0.466101	-0.661931	-0.726625	0.699269	-0.696341	0.161655	0.616046	0.701718	0.357880	-0.362643	-0.150668	0.919668
20003	1.683510	3.518590	9.024490	0.005421	0.012604	-0.001307	-0.464315	-0.667535	-0.719196	0.699303	-0.696338	0.161520	0.616046	0.701694	0.357929	-0.362577	-0.150797	0.919673
20004	1.624480	3.529800	9.035680	0.004366	0.014051	-0.001801	-0.467561	-0.659782	-0.724017	0.699318	-0.696363	0.161348	0.616083	0.701640	0.357969	-0.362485	-0.150931	0.919687
20005	1.565550	3.540920	9.046870	0.003896	0.010958	-0.000254	-0.465660	-0.663871	-0.718499	0.699353	-0.696354	0.161231	0.616082	0.701625	0.358002	-0.362420	-0.151038	0.919695
20006	1.583270	3.485310	9.037110	0.004378	0.010974	0.002466	-0.460351	-0.668253	-0.722363	0.699404	-0.696320	0.161158	0.616045	0.701639	0.358039	-0.362384	-0.151133	0.919694
20007	1.596440	3.514320	9.081390	0.000326	0.006849	0.003742	-0.461126	-0.664951	-0.727419	0.699449	-0.696290	0.161094	0.616028	0.701657	0.358032	-0.362327	-0.151187	0.919707
20008	1.617500	3.547620	9.052990	-0.000236	0.005234	0.010238	-0.462056	-0.662358	-0.717435	0.699494	-0.696274	0.160967	0.616054	0.701662	0.357978	-0.362195	-0.151240	0.919751
20009	1.636010	3.491710	9.043220	0.004924	0.005636	0.009114	-0.458551	-0.663519	-0.713251	0.699568	-0.696208	0.160933	0.615983	0.701710	0.358005	-0.362174	-0.151317	0.919746
20010	1.620960	3.530830	9.035910	0.001381	0.005403	0.004234	-0.461373	-0.662694	-0.717567	0.699525	-0.696276	0.160822	0.616044	0.701623	0.358070	-0.362152	-0.151406	0.919740
20011	1.627580	3.526080	9.077340	0.002906	0.007051	0.003179	-0.467284	-0.664816	-0.712790	0.699567	-0.696251	0.160753	0.616022	0.701633	0.358088	-0.362109	-0.151479	0.919745
20012	1.641590	3.526080	9.046010	0.005486	0.007251	0.002617	-0.462662	-0.660755	-0.716092	0.699520	-0.696316	0.160673	0.616046	0.701541	0.358228	-0.362159	-0.151606	0.919705
20013	1.604960	3.532080	9.067110	0.005538	0.004973	0.002277	-0.478030	-0.660296	-0.719399	0.699549	-0.696299	0.160620	0.616021	0.701541	0.358272	-0.362146	-0.151684	0.919697
20014	1.662060	3.560350	9.017330	0.004483	0.006420	0.001783	-0.461446	-0.660678	-0.719954	0.699564	-0.696274	0.160663	0.615950	0.701553	0.358370	-0.362238	-0.151742	0.919651
20015	1.635840	3.544480	9.062870	0.005464	0.013406	-0.005923	-0.463845	-0.659098	-0.721859	0.699572	-0.696303	0.160504	0.615982	0.701495	0.358427	-0.362166	-0.151878	0.919657
20016	1.584930	3.521490	9.039880	0.001380	0.005405	0.004232	-0.458927	-0.668680	-0.721355	0.699625	-0.696261	0.160457	0.615961	0.701531	0.358394	-0.362101	-0.151906	0.919678
20017	1.627150	3.549800	9.021580	0.001359	0.011559	-0.004307	-0.464258	-0.659079	-0.715268	0.699636	-0.696280	0.160320	0.615997	0.701491	0.358411	-0.362017	-0.152001	0.919695
20018	1.615590	3.533140	9.035970	-0.001159	0.006003	0.000184	-0.466856	-0.666755	-0.720707	0.699598	-0.696345	0.160206	0.616072	0.701413	0.358434	-0.361964	-0.152061	0.919706
20019	1.593560	3.499640	9.064610	-0.001211	0.008282	0.000523	-0.461669	-0.659154	-0.718379	0.699627	-0.696336	0.160116	0.616084	0.701411	0.358419	-0.361887	-0.152115	0.919727
20020	1.575160	3.487780	9.037580	0.000847	0.007668	0.001849	-0.462951	-0.666201	-0.718211	0.699630	-0.696350	0.160043	0.616098	0.701383	0.358449	-0.361857	-0.152180	0.919729
20021	1.562970	3.539050	9.088760	0.003479	0.005590	0.000949	-0.463257	-0.657454	-0.719904	0.699653	-0.696342	0.159979	0.616090	0.701376	0.358477	-0.361828	-0.152248	0.919729
20022	1.606610	3.499700	9.033430	0.003008	0.002496	0.002498	-0.459819	-0.664879	-0.720162	0.699647	-0.696355	0.159952	0.616092	0.701355	0.358514	-0.361836	-0.152288	0.919719
20023	1.602350	3.517200	9.050370	0.008064	0.007455	0.002053	-0.469102	-0.663393	-0.726625	0.699683	-0.696336	0.159875	0.616059	0.701348	0.358582	-0.361822	-0.152401	0.919706
20024	1.597840	3.573420	9.028660	0.005108	0.002680	-0.000784	-0.457368	-0.660779	-0.724845	0.699678	-0.696352	0.159830	0.616069	0.701323	0.358617	-0.361816	-0.152450	0.919700
20025	1.655590	3.524610	9.056040	0.008074	0.004378	0.006323	-0.461020	-0.673243	-0.718136	0.699728	-0.696308	0.159797	0.616006	0.701346	0.358679	-0.361824	-0.152542	0.919682
20026	1.601280	3.518880	9.049910	0.005004	0.007238	-0.000108	-0.466582	-0.656978	-0.728624	0.699694	-0.696384	0.159616	0.616091	0.701243	0.358734	-0.361746	-0.152666	0.919692
20027	1.618310	3.569640	9.038420	0.002956	0.004776	0.002835	-0.465598	-0.664851	-0.718011	0.699725	-0.696365	0.159566	0.616072	0.701250	0.358754	-0.361719	-0.152725	0.919693
20028	1.636590	3.513880	9.028680	0.002476	0.004759	0.000115	-0.464906	-0.661007	-0.724397	0.699769	-0.696321	0.159564	0.616034	0.701290	0.358741	-0.361699	-0.152739	0.919698
20029	1.610730	3.536270	9.035610	0.001378	0.005408	0.004229	-0.462502	-0.657460	-0.721737	0.699810	-0.696291	0.159514	0.616010	0.701309	0.358744	-0.361658	-0.152791	0.919706
20030	1.546030	3.474590	9.082560	-0.003207	0.003543	0.003124	-0.465880	-0.655790	-0.719258	0.699881	-0.696219	0.159515	0.615976	0.701388	0.358647	-0.361580	-0.152753	0.919743
20031	1.610410	3.497570	9.074360	0.005013	0.004162	0.004162	-0.469036	-0.664757	-0.722633	0.699918	-0.696191	0.159476	0.615940	0.701401	0.358684	-0.361570	-0.152821	0.919735
20032	1.577670	3.524940	9.039800	0.001953	0.003944	0.002002	-0.462193	-0.663277	-0.718247	0.699953	-0.696147	0.159515	0.615883	0.701443	0.358700	-0.361598	-0.152830	0.919723
20033	1.606010	3.553930	9.052560	0.010182	0.001486	0.007311	-0.457811	-0.663804	-0.713754	0.700000	-0.696101	0.159512	0.615807	0.701470	0.358779	-0.361639	-0.152916	0.919692
20034	1.595130	3.537960	9.066560	0.007541	0.006642	0.003938	-0.459752	-0.662413	-0.713035	0.699969	-0.696157	0.159404	0.615835	0.701386	0.358895	-0.361651	-0.153049	0.919666
20035	1.624060	3.537860	9.003780	0.007645	0.002084	0.003263	-0.458598	-0.666603	-0.719067	0.699992	-0.696138	0.159381	0.615796	0.701388	0.358957	-0.361672	-0.153122	0.919645
20036	1.634840	3.516650	9.027920	0.008647	0.002917	0.004094	-0.465480	-0.661498	-0.720106	0.699941	-0.696211	0.159290	0.615833	0.701290	0.359085	-0.361708	-0.153242	0.919611
20037	1.630620	3.534360	9.044760	0.007062	0.006625	0.001216	-0.470609	-0.659564	-0.721471	0.699968	-0.696200	0.159218	0.615811	0.701278	0.359146	-0.361693	-0.153342	0.919600
20038	1.601670	3.506580	9.031640	0.010121	0.006844	0.003374	-0.471914	-0.657244	-0.723766	0.700020	-0.696141	0.159245	0.615711	0.701319	0.359237	-0.361761	-0.153424	0.919560
20039	1.565050	3.551200	9.014010	0.001003	0.000833	0.000832	-0.460360	-0.656650	-0.725972	0.700024	-0.696142	0.159224	0.615713	0.701315	0.359242	-0.361750	-0.153442	0.919561
20040	1.558490	3.517680	9.011100	0.005123	-0.003470	0.007757	-0.463521	-0.667200	-0.719396	0.700143	-0.695991	0.159363	0.615563	0.701478	0.359181	-0.361776	-0.153380	0.919561
20041	1.609010	3.541040	9.034050	-0.001570	-0.002443	0.005664	-0.466265	-0.655297	-0.722834	0.700165	-0.695962	0.159391	0.615540	0.701511	0.359155	-0.361772	-0.153356	0.919567
20042	1.566490	3.551240	9.013740	-0.000988	-0.006983	0.007710	-0.462784	-0.668040	-0.722109	0.700189	-0.695911	0.159507	0.615482	0.701579	0.359121	-0.361824	-0.153279	0.919559
20043	1.600020	3.523900	9.048180	-0.001460	-0.010076	0.009261	-0.464568	-0.664974	-0.717007	0.700206	-0.695869	0.159618	0.615434	0.701638	0.359090	-0.361874	-0.153203	0.919552
20044	1.597630	3.502190	9.103690	0.000168	-0.012987	0.007530	-0.462436	-0.664213	-0.723189	0.700142	-0.695909	0.159726	0.615440	0.701612	0.359131	-0.361988	-0.153141	0.919518
20045	1.656320	3.529980	9.053820	0.003118	-0.005135	0.006091	-0.465131	-0.664575	-0.719572	0.700157	-0.695881	0.159780	0.615397	0.701641	0.359147	-0.362032	-0.153132	0.919502
20046	1.678640	3.524940	9.063750	0.003598	-0.005116	0.008810	-0.454756	-0.665699	-0.724215	0.700167	-0.695859	0.159835	0.615356	0.701665	0.359171	-0.362083	-0.153124	0.919483
20047	1.635610	3.535620	9.043370	0.003481	0.005591	0.000944	-0.459342	-0.656345	-0.713218	0.700189	-0.695851	0.159772	0.615348	0.701658	0.359199	-0.362054	-0.153192	0.919483
20048	1.599110	3.541860	9.064330	0.011229	0.003116	0.003529	-0.454735	-0.663055	-0.721621	0.700196	-0.695866	0.159673	0.615354	0.701619	0.359264	-0.362029	-0.153299	0.919475
20049	1.635480	3.498370	9.081550	0.005596	-0.000376	0.006202	-0.457107	-0.667146	-0.717000	0.700229	-0.695831	0.159683	0.615301	0.701645	0.359302	-0.362055	-0.153341	0.919458
20050	1.603060	3.525920	9.046850	0.005589	0.002698	0.001932	-0.455310	-0.658665	-0.717316	0.700190	-0.695904	0.159537	0.615383	0.701553	0.359341	-0.361990	-0.153431	0.919468
20051	1.609740	3.560040	9.049500	0.004011	0.003331	0.003325	-0.466877	-0.661994	-0.728749	0.700218	-0.695883	0.159502	0.615357	0.701561	0.359370	-0.361980	-0.153487	0.919463
20052	1.620560	3.538390	9.073810	0.002057	-0.000614	0.001326	-0.457765	-0.664271	-0.724498	0.700258	-0.695846	0.159492	0.615343	0.701602	0.359315	-0.361927	-0.153471	0.919486
20053	1.602750	3.565100	9.007980	-0.001577	0.000633	0.001393	-0.463782	-0.666111	-0.727230	0.700264	-0.695843	0.159475	0.615351	0.701605	0.359295	-0.361901	-0.153468	0.919497
20054	1.603140	3.526190	9.046730	-0.005154	-0.003472	0.005394	-0.464663	-0.662252	-0.725594	0.700295	-0.695816	0.159460	0.615373	0.701647	0.359177	-0.361806	-0.153402	0.919546
20055	1.596880	3.530390	9.005420	-0.006150	-0.007378	0.008832	-0.467541	-0.665023	-0.714688	0.700318	-0.695773	0.159543	0.615346	0.701708	0.359103	-0.361807	-0.153312	0.919560
20056	1.604780	3.525110	9.046860	-0.001469	-0.006998	0.004989	-0.462071	-0.658712	-0.725048	0.700292	-0.695776	0.159647	0.615329	0.701721	0.359108	-0.361886	-0.153246	0.919540
20057	1.630560	3.541070	9.001350	-0.003678	0.000454	0.004673	-0.465301	-0.655120	-0.713805	0.700318	-0.695750	0.159643	0.615321	0.701750	0.359064	-0.361848	-0.153227	0.919558
20058	1.648810	3.513900	9.067260	-0.004100	-0.004918	0.005887	-0.459154	-0.665167	-0.720970	0.700366	-0.695677	0.159751	0.615265	0.701844	0.358976	-0.361852	-0.153125	0.919574
20059	1.609790	3.507030	9.030020	-0.000574	0.001466	0.002224	-0.463451	-0.658233	-0.724298	0.700381	-0.695668	0.159730	0.615263	0.701852	0.358964	-0.361826	-0.153135	0.919582
20060	1.595270	3.507380	9.061320	0.000959	0.000039	0.005437	-0.472849	-0.667194	-0.721427	0.700420	-0.695631	0.159717	0.615248	0.701890	0.358916	-0.361777	-0.153127	0.919603
20061	1.606120	3.524160	9.046990	0.003060	0.000218	0.002157	-0.463965	-0.658993	-0.722544	0.700429	-0.695624	0.159706	0.615234	0.701891	0.358938	-0.361782	-0.153154	0.919597
20062	1.642490	3.518780	9.025700	0.003590	-0.002041	0.004538	-0.464089	-0.660289	-0.728628	0.700445	-0.695589	0.159790	0.615170	0.701927	0.358977	-0.361861	-0.153145	0.919567
20063	1.595440	3.546500	9.022390	0.001476	0.003925	-0.000719	-0.460183	-0.665206	-0.722656	0.700450	-0.695596	0.159735	0.615181	0.701911	0.358988	-0.361831	-0.153187	0.919572
20064	1.606150	3.563200	9.008130	0.000435	-0.000774	0.007324	-0.473235	-0.664022	-0.717177	0.700518	-0.695528	0.159736	0.615143	0.701984	0.358911	-0.361765	-0.153163	0.919602
20065	1.577210	3.563920	9.070700	-0.000524	-0.000813	0.001887	-0.458623	-0.662108	-0.721043	0.700522	-0.695524	0.159734	0.615144	0.701989	0.358900	-0.361755	-0.153158	0.919606
20066	1.589270	3.512550	9.019590	-0.001565	-0.005511	0.009930	-0.468438	-0.662105	-0.721346	0.700526	-0.695496	0.159840	0.615096	0.702028	0.358905	-0.361829	-0.153105	0.919586
20067	1.622410	3.523550	9.015480	-0.004625	-0.005729	0.007773	-0.461602	-0.658716	-0.723629	0.700548	-0.695459	0.159904	0.615071	0.702081	0.358846	-0.361828	-0.153037	0.919598
20068	1.608520	3.523490	9.046830	-0.003098	-0.004083	0.006716	-0.468211	-0.666302	-0.717466	0.700594	-0.695393	0.159989	0.615021	0.702163	0.358772	-0.361826	-0.152957	0.919612
20069	1.613030	3.506120	9.029800	-0.001042	-0.004697	0.008041	-0.464257	-0.660911	-0.715995	0.700622	-0.695352	0.160045	0.614980	0.702211	0.358746	-0.361840	-0.152921	0.919612
20070	1.634920	3.500840	9.039880	0.002007	0.001665	0.001662	-0.467635	-0.657221	-0.718518	0.700571	-0.695402	0.160051	0.614996	0.702154	0.358832	-0.361913	-0.152956	0.919578
20071	1.688600	3.545760	9.007170	0.003010	0.002497	0.002493	-0.461616	-0.655868	-0.714495	0.700591	-0.695389	0.160021	0.614980	0.702158	0.358852	-0.361902	-0.152999	0.919575
20072	1.652170	3.551680	9.028280	0.003964	0.005609	0.003661	-0.464970	-0.653965	-0.720041	0.700628	-0.695349	0.160033	0.614926	0.702190	0.358882	-0.361921	-0.153034	0.919562
20073	1.608630	3.523740	9.046710	-0.000149	0.006838	0.001010	-0.457594	-0.663800	-0.713632	0.700655	-0.695339	0.159958	0.614931	0.702188	0.358875	-0.361861	-0.153085	0.919577
20074	1.614920	3.557630	9.049520	0.004917	0.008721	0.004828	-0.468995	-0.656155	-0.719974	0.700684	-0.695326	0.159885	0.614915	0.702184	0.358911	-0.361829	-0.153167	0.919576
20075	1.553570	3.517910	9.040780	0.000330	0.006858	0.003727	-0.454236	-0.664783	-0.721996	0.700728	-0.695297	0.159820	0.614900	0.702200	0.358905	-0.361771	-0.153221	0.919589
20076	1.517220	3.523600	9.061950	0.001962	0.000873	0.006266	-0.465527	-0.662762	-0.713608	0.700764	-0.695262	0.159815	0.614875	0.702235	0.358879	-0.361743	-0.153224	0.919600
20077	1.575550	3.512710	9.050820	0.001062	-0.007590	0.009030	-0.463836	-0.659002	-0.720761	0.700788	-0.695218	0.159901	0.614820	0.702287	0.358871	-0.361790	-0.153182	0.919588
20078	1.641210	3.535470	9.042410	0.001062	-0.007590	0.009029	-0.468741	-0.660520	-0.720078	0.700775	-0.695203	0.160021	0.614775	0.702313	0.358899	-0.361892	-0.153131	0.919557
20079	1.674180	3.546850	9.038170	0.000529	-0.002259	0.002381	-0.470118	-0.667083	-0.721949	0.700777	-0.695198	0.160034	0.614768	0.702320	0.358896	-0.361899	-0.153123	0.919556
20080	1.631350	3.557360	9.017840	0.001008	-0.002239	0.005098	-0.465956	-0.661642	-0.723708	0.700779	-0.695177	0.160120	0.614718	0.702345	0.358934	-0.361982	-0.153104	0.919526
20081	1.631660	3.518850	9.056440	0.001483	0.000853	0.003548	-0.469596	-0.665807	-0.717536	0.700799	-0.695159	0.160110	0.614700	0.702358	0.358939	-0.361974	-0.153124	0.919526
20082	1.620670	3.540570	9.032150	-0.004256	0.004996	0.002627	-0.463608	-0.658161	-0.723535	0.700805	-0.695155	0.160100	0.614703	0.702362	0.358926	-0.361957	-0.153123	0.919533
20083	1.588220	3.528760	9.036460	-0.003678	0.000458	0.004671	-0.458150	-0.654677	-0.722093	0.700831	-0.695130	0.160097	0.614695	0.702392	0.358881	-0.361920	-0.153104	0.919551
20084	1.588530	3.528200	9.036630	-0.006733	-0.002831	0.006782	-0.464073	-0.658608	-0.726503	0.700908	-0.695041	0.160144	0.614665	0.702504	0.358714	-0.361822	-0.152991	0.919608
20085	1.610760	3.522400	9.046860	-0.003051	-0.006360	0.006377	-0.461990	-0.655009	-0.718617	0.700920	-0.695014	0.160209	0.614643	0.702544	0.358673	-0.361837	-0.152929	0.919612
20086	1.679860	3.527720	9.021600	-0.003149	-0.001801	0.007050	-0.463237	-0.654587	-0.724584	0.700996	-0.694923	0.160269	0.614587	0.702651	0.358559	-0.361784	-0.152849	0.919646
20087	1.651240	3.499050	9.008810	-0.000626	0.006818	-0.001707	-0.462972	-0.660294	-0.725585	0.701006	-0.694933	0.160185	0.614613	0.702632	0.358552	-0.361720	-0.152896	0.919664
20088	1.646750	3.516050	9.025990	-0.000720	0.008306	0.003233	-0.466009	-0.660869	-0.712567	0.701110	-0.694841	0.160130	0.614571	0.702722	0.358446	-0.361590	-0.152898	0.919715
20089	1.620820	3.538460	9.032950	0.003965	0.005609	0.003659	-0.457375	-0.654957	-0.719184	0.701148	-0.694814	0.160077	0.614543	0.702733	0.358473	-0.361563	-0.152968	0.919713
20090	1.630930	3.516760	9.057390	0.000853	0.010742	-0.002426	-0.459552	-0.667604	-0.725694	0.701128	-0.694859	0.159968	0.614597	0.702674	0.358495	-0.361509	-0.153035	0.919723
20091	1.565330	3.532740	9.027060	0.003437	0.007868	0.001279	-0.460490	-0.669002	-0.718723	0.701160	-0.694846	0.159885	0.614588	0.702669	0.358521	-0.361463	-0.153117	0.919728
20092	1.586600	3.489310	9.075760	0.006070	0.002715	0.004647	-0.469124	-0.661384	-0.722352	0.701114	-0.694918	0.159776	0.614651	0.702579	0.358590	-0.361446	-0.153205	0.919720
20093	1.604310	3.539950	9.064160	0.001961	0.000874	0.006264	-0.468422	-0.665256	-0.712274	0.701151	-0.694881	0.159775	0.614613	0.702610	0.358594	-0.361440	-0.153229	0.919718
20094	1.651410	3.551030	9.028680	0.002535	-0.000594	0.004041	-0.458490	-0.659678	-0.722849	0.701116	-0.694901	0.159841	0.614584	0.702587	0.358689	-0.361555	-0.153247	0.919670
20095	1.608110	3.561620	9.008400	0.000332	0.006860	0.003725	-0.459418	-0.663442	-0.719050	0.701159	-0.694872	0.159776	0.614569	0.702603	0.358683	-0.361498	-0.153300	0.919684
20096	1.640010	3.534340	9.043070	-0.002153	0.005175	-0.000653	-0.463224	-0.657688	-0.724900	0.701141	-0.694916	0.159666	0.614650	0.702558	0.358633	-0.361394	-0.153314	0.919722
20097	1.596560	3.544530	9.022970	-0.005210	0.001886	0.001458	-0.464923	-0.659609	-0.719689	0.701153	-0.694911	0.159638	0.614671	0.702567	0.358580	-0.361337	-0.153294	0.919748
20098	1.607060	3.522200	9.047590	-0.003730	0.005810	0.000738	-0.465107	-0.661678	-0.718970	0.701200	-0.694870	0.159609	0.614665	0.702611	0.358503	-0.361256	-0.153276	0.919783
20099	1.603790	3.471040	9.027960	-0.003679	0.000460	0.004668	-0.463616	-0.661568	-0.716737	0.701225	-0.694845	0.159606	0.614658	0.702640	0.358458	-0.361218	-0.153257	0.919801
20100	1.592310	3.521990	9.079140	-0.000574	0.001468	0.002222	-0.464930	-0.668673	-0.717791	0.701192	-0.694878	0.159607	0.614680	0.702606	0.358486	-0.361245	-0.153260	0.919790
20101	1.610690	3.504420	9.030870	-0.000574	0.001468	0.002222	-0.464543	-0.655524	-0.724640	0.701206	-0.694869	0.159586	0.614679	0.702614	0.358474	-0.361220	-0.153270	0.919798
20102	1.624490	3.571750	9.036470	-0.000574	0.001468	0.002222	-0.465131	-0.655469	-0.724495	0.701201	-0.694874	0.159585	0.614685	0.702610	0.358471	-0.361218	-0.153266	0.919799
20103	1.617550	3.537800	9.033790	-0.004158	0.000439	0.001952	-0.470444	-0.669482	-0.723058	0.701210	-0.694867	0.159573	0.614699	0.702621	0.358426	-0.361178	-0.153243	0.919819
20104	1.606690	3.520780	9.048210	-0.003203	0.003552	0.003118	-0.468416	-0.662658	-0.719863	0.701247	-0.694827	0.159586	0.614671	0.702664	0.358389	-0.361154	-0.153227	0.919831
20105	1.617400	3.537170	9.034070	-0.001099	0.000656	0.004107	-0.461460	-0.658371	-0.726760	0.701270	-0.694806	0.159579	0.614659	0.702685	0.358369	-0.361131	-0.153227	0.919840
20106	1.614370	3.486110	9.014360	-0.004158	0.000440	0.001951	-0.462615	-0.659085	-0.718622	0.701293	-0.694779	0.159597	0.614655	0.702723	0.358300	-0.361092	-0.153176	0.919864
20107	1.602910	3.537020	9.065550	-0.001099	0.000656	0.004107	-0.466303	-0.666341	-0.720779	0.701315	-0.694757	0.159591	0.614643	0.702744	0.358280	-0.361069	-0.153176	0.919873
20108	1.632010	3.497610	9.041660	0.001480	0.003924	-0.000719	-0.458054	-0.659551	-0.717593	0.701278	-0.694805	0.159549	0.614680	0.702689	0.358325	-0.361079	-0.153214	0.919863
20109	1.638620	3.531340	9.044490	-0.000622	0.003748	0.002557	-0.466462	-0.673604	-0.724894	0.701302	-0.694790	0.159508	0.614677	0.702699	0.358312	-0.361037	-0.153239	0.919875
20110	1.612750	3.515010	9.090150	-0.001198	0.008288	0.000513	-0.466098	-0.662914	-0.717748	0.701264	-0.694858	0.159378	0.614759	0.702616	0.358333	-0.360972	-0.153307	0.919889
20111	1.572570	3.546890	9.014400	-0.002728	0.009716	-0.002699	-0.453293	-0.662753	-0.721721	0.701277	-0.694871	0.159263	0.614800	0.702592	0.358309	-0.360876	-0.153359	0.919918
20112	1.572010	3.508050	9.053250	-0.003203	0.003552	0.003117	-0.455009	-0.657694	-0.716162	0.701250	-0.694916	0.159187	0.614869	0.702545	0.358283	-0.360812	-0.153367	0.919942
20113	1.572110	3.507770	9.053340	-0.001576	-0.002435	0.005657	-0.464500	-0.662197	-0.721085	0.701271	-0.694889	0.159214	0.614847	0.702578	0.358256	-0.360808	-0.153342	0.919948
20114	1.576340	3.490270	9.036410	-0.006212	-0.002016	0.004890	-0.467627	-0.658721	-0.718016	0.701248	-0.694911	0.159218	0.614895	0.702570	0.358188	-0.360771	-0.153277	0.919973
20115	1.626720	3.512950	9.059620	-0.002628	-0.000987	0.005161	-0.460482	-0.663160	-0.717781	0.701271	-0.694885	0.159230	0.614881	0.702601	0.358153	-0.360750	-0.153255	0.919985
20116	1.695590	3.518420	9.034410	0.000001	-0.003072	0.004265	-0.464406	-0.653761	-0.730557	0.701228	-0.694916	0.159282	0.614892	0.702576	0.358182	-0.360814	-0.153226	0.919965
20117	1.605590	3.517950	9.049510	-0.000622	0.003749	0.002557	-0.451438	-0.653779	-0.721997	0.701252	-0.694901	0.159241	0.614889	0.702586	0.358169	-0.360773	-0.153251	0.919977
20118	1.663020	3.506990	9.038570	0.001481	0.003924	-0.000719	-0.458487	-0.658387	-0.718079	0.701353	-0.694812	0.159184	0.614860	0.702677	0.358041	-0.360626	-0.153237	0.920037
20119	1.650810	3.558270	9.089760	-0.000146	0.009912	-0.003258	-0.468211	-0.660615	-0.726627	0.701364	-0.694829	0.159066	0.614896	0.702645	0.358041	-0.360544	-0.153308	0.920057
20120	1.610740	3.551650	9.052620	-0.002726	0.006645	0.001567	-0.460906	-0.657102	-0.720929	0.701396	-0.694807	0.159018	0.614902	0.702666	0.357989	-0.360470	-0.153312	0.920085
20121	1.570730	3.544910	9.015500	-0.002249	0.009738	0.000017	-0.460059	-0.657354	-0.716802	0.701426	-0.694800	0.158913	0.614923	0.702660	0.357965	-0.360376	-0.153367	0.920113
20122	1.595510	3.483650	9.047500	-0.005736	0.004149	-0.000927	-0.462779	-0.659752	-0.716940	0.701410	-0.694827	0.158868	0.614984	0.702641	0.357897	-0.360304	-0.153332	0.920147
20123	1.569880	3.505490	9.054610	-0.004733	0.001909	0.004170	-0.465123	-0.663994	-0.722999	0.701438	-0.694803	0.158849	0.614984	0.702668	0.357843	-0.360249	-0.153315	0.920171
20124	1.598460	3.494930	9.106340	-0.003107	-0.001008	0.002444	-0.465275	-0.662529	-0.730174	0.701398	-0.694839	0.158870	0.615018	0.702641	0.357839	-0.360269	-0.153280	0.920169
20125	1.649410	3.488660	9.053980	0.000477	0.000020	0.002716	-0.459282	-0.661681	-0.724831	0.701410	-0.694829	0.158864	0.615010	0.702649	0.357835	-0.360260	-0.153286	0.920172
20126	1.638550	3.510710	9.029560	0.002532	0.002476	-0.000223	-0.457650	-0.669465	-0.716868	0.701437	-0.694812	0.158816	0.615015	0.702663	0.357802	-0.360199	-0.153301	0.920193
20127	1.598340	3.533690	9.067660	0.003010	0.002496	0.002493	-0.470228	-0.657823	-0.722372	0.701456	-0.694800	0.158786	0.614999	0.702666	0.357822	-0.360188	-0.153343	0.920191
20128	1.612490	3.533500	9.036380	0.001481	0.006997	-0.004985	-0.468270	-0.663204	-0.720166	0.701376	-0.694901	0.158695	0.615089	0.702552	0.357890	-0.360190	-0.153404	0.920180
20129	1.575870	3.539420	9.057480	0.003487	0.002517	0.005209	-0.469796	-0.665014	-0.723928	0.701412	-0.694869	0.158675	0.615053	0.702574	0.357910	-0.360182	-0.153449	0.920175
20130	1.590450	3.500510	9.064820	-0.000574	0.001469	0.002221	-0.469330	-0.661409	-0.725060	0.701390	-0.694883	0.158711	0.615045	0.702560	0.357951	-0.360239	-0.153449	0.920153
20131	1.590470	3.538950	9.026240	-0.001100	0.000657	0.004106	-0.467203	-0.665534	-0.715716	0.701412	-0.694862	0.158704	0.615033	0.702581	0.357931	-0.360215	-0.153449	0.920162
20132	1.608310	3.512080	9.092070	0.000954	0.000041	0.005432	-0.463209	-0.662002	-0.726232	0.701391	-0.694871	0.158762	0.615009	0.702572	0.357989	-0.360298	-0.153450	0.920130
20133	1.584040	3.505010	9.023440	-0.002104	-0.003247	0.007540	-0.464480	-0.663477	-0.724229	0.701420	-0.694832	0.158803	0.614977	0.702618	0.357954	-0.360296	-0.153416	0.920136
20134	1.584500	3.504780	9.023450	-0.000575	-0.001603	0.006486	-0.462098	-0.656145	-0.723762	0.701449	-0.694796	0.158831	0.614951	0.702659	0.357918	-0.360284	-0.153387	0.920145
20135	1.580750	3.521840	9.040470	0.002436	0.003965	0.004712	-0.456017	-0.658956	-0.718703	0.701487	-0.694766	0.158796	0.614922	0.702679	0.357929	-0.360260	-0.153435	0.920147
20136	1.656130	3.522840	9.056630	0.004062	0.001048	0.002987	-0.453812	-0.658342	-0.729401	0.701499	-0.694759	0.158773	0.614923	0.702683	0.357919	-0.360235	-0.153447	0.920155
20137	1.630530	3.545630	9.063380	0.006546	0.005804	0.003099	-0.460078	-0.656636	-0.723925	0.701534	-0.694737	0.158715	0.614890	0.702685	0.357971	-0.360223	-0.153537	0.920145
20138	1.601600	3.517590	9.050350	0.002485	0.004757	0.000111	-0.458359	-0.656271	-0.726957	0.701595	-0.694697	0.158621	0.614899	0.702721	0.357886	-0.360089	-0.153554	0.920194
20139	1.590330	3.501170	9.064590	0.002914	0.007058	0.003162	-0.465883	-0.667350	-0.717569	0.701634	-0.694673	0.158552	0.614880	0.702729	0.357904	-0.360045	-0.153627	0.920199
20140	1.611460	3.534710	9.036090	0.003965	0.005610	0.003657	-0.455190	-0.658399	-0.717505	0.701641	-0.694679	0.158496	0.614884	0.702711	0.357931	-0.360024	-0.153683	0.920198
20141	1.578680	3.523660	9.040120	0.003488	0.005589	0.000941	-0.470388	-0.660206	-0.726972	0.701662	-0.694673	0.158432	0.614878	0.702703	0.357958	-0.359994	-0.153749	0.920199
20142	1.621370	3.513300	9.060450	0.002387	0.006248	0.005046	-0.458609	-0.665647	-0.717184	0.701705	-0.694636	0.158399	0.614849	0.702731	0.357954	-0.359959	-0.153787	0.920206
20143	1.578160	3.524030	9.040070	0.002531	-0.000595	0.004042	-0.463202	-0.660675	-0.725027	0.701722	-0.694618	0.158403	0.614825	0.702745	0.357967	-0.359967	-0.153803	0.920200
20144	1.592930	3.523430	9.008850	-0.004257	0.001933	0.006883	-0.458444	-0.655938	-0.722605	0.701708	-0.694640	0.158374	0.614865	0.702728	0.357931	-0.359927	-0.153784	0.920219
20145	1.625150	3.495920	9.043550	-0.000623	0.003751	0.002554	-0.462656	-0.656415	-0.722732	0.701731	-0.694625	0.158332	0.614863	0.702736	0.357918	-0.359885	-0.153809	0.920231
20146	1.610450	3.496260	9.074860	0.000378	0.001512	0.007650	-0.468728	-0.662312	-0.716228	0.701802	-0.694550	0.158349	0.614810	0.702816	0.357853	-0.359837	-0.153788	0.920254
20147	1.632090	3.529430	9.046420	-0.000575	0.001470	0.002219	-0.465861	-0.659613	-0.721342	0.701816	-0.694541	0.158328	0.614810	0.702822	0.357840	-0.359811	-0.153797	0.920262
20148	1.631850	3.529420	9.046470	0.000908	0.005395	0.001499	-0.458498	-0.652554	-0.723562	0.701790	-0.694567	0.158329	0.614812	0.702790	0.357899	-0.359857	-0.153828	0.920239
20149	1.645890	3.529160	9.015240	0.002964	0.007849	-0.001440	-0.461062	-0.665545	-0.715642	0.701804	-0.694574	0.158236	0.614825	0.702766	0.357925	-0.359808	-0.153906	0.920245
20150	1.598150	3.518430	9.050640	0.000383	0.007655	-0.000882	-0.461527	-0.658658	-0.724838	0.701778	-0.694621	0.158142	0.614888	0.702711	0.357925	-0.359750	-0.153944	0.920261
20151	1.575710	3.523880	9.040550	0.002440	0.010110	-0.003822	-0.459514	-0.665338	-0.719731	0.701785	-0.694642	0.158019	0.614920	0.702671	0.357950	-0.359682	-0.154035	0.920273
20152	1.603160	3.514020	9.092230	0.002916	0.010131	-0.001107	-0.460688	-0.659955	-0.720642	0.701770	-0.694687	0.157891	0.614977	0.702608	0.357973	-0.359615	-0.154115	0.920286
20153	1.574060	3.524340	9.040670	0.001383	0.005417	0.004213	-0.466101	-0.659747	-0.720058	0.701809	-0.694658	0.157841	0.614956	0.702626	0.357975	-0.359573	-0.154165	0.920293
20154	1.584260	3.502380	9.065180	-0.001195	0.008293	0.000505	-0.465266	-0.655632	-0.717977	0.701804	-0.694677	0.157782	0.614984	0.702600	0.357976	-0.359535	-0.154196	0.920303
20155	1.580800	3.490020	9.006850	-0.001151	0.002941	0.004437	-0.467604	-0.657777	-0.720325	0.701836	-0.694651	0.157755	0.614971	0.702623	0.357955	-0.359496	-0.154211	0.920316
20156	1.644510	3.580400	9.035700	-0.000671	0.006034	0.002886	-0.461658	-0.666135	-0.724063	0.701861	-0.694620	0.157777	0.614934	0.702652	0.357960	-0.359509	-0.154216	0.920310
20157	1.600910	3.552280	9.054110	-0.001674	0.005201	0.002055	-0.461784	-0.663973	-0.713652	0.701887	-0.694607	0.157721	0.614939	0.702659	0.357938	-0.359450	-0.154243	0.920328
20158	1.618830	3.495990	9.044660	-0.003201	0.006629	-0.001157	-0.468897	-0.659656	-0.724575	0.701793	-0.694724	0.157623	0.615060	0.702537	0.357971	-0.359427	-0.154273	0.920332
20159	1.603290	3.534660	9.037560	-0.004823	0.012621	-0.003702	-0.458925	-0.668351	-0.717185	0.701809	-0.694740	0.157478	0.615117	0.702508	0.357929	-0.359297	-0.154330	0.920374
20160	1.616970	3.495340	9.045240	-0.002726	0.006651	0.001558	-0.460345	-0.663668	-0.717518	0.701766	-0.694797	0.157419	0.615178	0.702447	0.357945	-0.359278	-0.154353	0.920377
20161	1.601580	3.495540	9.076710	-0.002246	0.009744	0.000006	-0.454169	-0.667762	-0.716040	0.701795	-0.694792	0.157314	0.615199	0.702440	0.357921	-0.359184	-0.154408	0.920405
20162	1.611310	3.512170	9.062680	0.000915	0.011541	-0.007037	-0.459983	-0.655872	-0.722258	0.701643	-0.694993	0.157107	0.615401	0.702219	0.358008	-0.359136	-0.154510	0.920406
20163	1.552340	3.523390	9.073670	0.001865	0.011584	-0.001606	-0.463887	-0.671028	-0.724767	0.701668	-0.694996	0.156979	0.615420	0.702195	0.358024	-0.359055	-0.154606	0.920422
20164	1.583610	3.534800	9.069810	-0.000716	0.011389	-0.001050	-0.464254	-0.662507	-0.719456	0.701656	-0.695036	0.156853	0.615480	0.702141	0.358026	-0.358974	-0.154671	0.920443
20165	1.543350	3.489750	9.071190	0.000809	0.009961	0.002162	-0.460079	-0.661893	-0.717898	0.701699	-0.695016	0.156754	0.615476	0.702144	0.358027	-0.358898	-0.154749	0.920459
20166	1.567890	3.506070	9.025850	0.001865	0.011585	-0.001608	-0.466103	-0.663004	-0.717777	0.701638	-0.695103	0.156641	0.615556	0.702040	0.358094	-0.358880	-0.154831	0.920452
20167	1.573980	3.539730	9.028820	-0.003201	0.006631	-0.001161	-0.456315	-0.661182	-0.728161	0.701648	-0.695110	0.156560	0.615589	0.702026	0.358063	-0.358803	-0.154858	0.920478
20168	1.580450	3.534810	9.070360	0.002905	0.003990	0.007425	-0.461790	-0.662202	-0.723938	0.701668	-0.695095	0.156539	0.615571	0.702034	0.358080	-0.358795	-0.154892	0.920475
20169	1.587900	3.500650	9.036370	-0.002150	0.005182	-0.000663	-0.460822	-0.661047	-0.716965	0.701676	-0.695102	0.156473	0.615597	0.702022	0.358058	-0.358734	-0.154917	0.920495
20170	1.626730	3.506990	9.073930	-0.000625	0.003753	0.002550	-0.461694	-0.666508	-0.719917	0.701638	-0.695147	0.156443	0.615642	0.701975	0.358072	-0.358732	-0.154924	0.920495
20171	1.594090	3.534190	9.039370	0.000432	0.005377	-0.001220	-0.461406	-0.662640	-0.724611	0.701644	-0.695157	0.156374	0.615663	0.701956	0.358075	-0.358685	-0.154967	0.920505
20172	1.575920	3.483920	9.050820	0.000954	0.003115	0.001163	-0.460199	-0.658786	-0.723416	0.701585	-0.695227	0.156329	0.615726	0.701882	0.358111	-0.358692	-0.154989	0.920499
20173	1.557400	3.540020	9.060440	0.000474	0.000021	0.002715	-0.466854	-0.659667	-0.724869	0.701595	-0.695218	0.156322	0.615719	0.701889	0.358108	-0.358684	-0.154996	0.920501
20174	1.565150	3.506050	9.026340	0.003584	0.001028	0.000274	-0.458774	-0.654037	-0.724786	0.701600	-0.695207	0.156344	0.615700	0.701899	0.358122	-0.358707	-0.154997	0.920492
20175	1.561530	3.523370	9.043220	0.002624	-0.005161	0.003379	-0.459925	-0.655447	-0.719297	0.701596	-0.695202	0.156388	0.615681	0.701908	0.358138	-0.358748	-0.154983	0.920478
20176	1.609000	3.534240	9.007910	-0.002533	-0.002477	0.000224	-0.458127	-0.663619	-0.725445	0.701616	-0.695173	0.156429	0.615674	0.701952	0.358064	-0.358722	-0.154914	0.920500
20177	1.626750	3.507170	9.073850	-0.003110	-0.001006	0.002441	-0.463030	-0.668052	-0.721925	0.701621	-0.695167	0.156431	0.615682	0.701963	0.358029	-0.358699	-0.154889	0.920513
20178	1.609380	3.495130	9.046680	-0.001585	-0.002435	0.005654	-0.461486	-0.655557	-0.729199	0.701574	-0.695214	0.156435	0.615728	0.701923	0.358025	-0.358709	-0.154860	0.920514
20179	1.616410	3.528860	9.049450	0.003536	0.003310	0.000607	-0.461998	-0.662197	-0.721492	0.701583	-0.695215	0.156391	0.615725	0.701911	0.358054	-0.358697	-0.154911	0.920510
20180	1.562110	3.484660	9.081790	0.005115	0.002672	-0.000780	-0.466093	-0.657417	-0.720776	0.701607	-0.695194	0.156376	0.615704	0.701926	0.358062	-0.358687	-0.154938	0.920510
20181	1.558250	3.540780	9.060000	0.004738	-0.001915	-0.004160	-0.462430	-0.658523	-0.719562	0.701568	-0.695236	0.156363	0.615730	0.701879	0.358110	-0.358718	-0.154961	0.920493
20182	1.627030	3.546680	9.034810	0.000199	-0.006058	-0.005597	-0.458876	-0.661193	-0.716654	0.701476	-0.695310	0.156446	0.615781	0.701822	0.358133	-0.358811	-0.154885	0.920470
20183	1.623990	3.534350	8.976400	-0.004629	0.003495	-0.005040	-0.456098	-0.659016	-0.722718	0.701451	-0.695350	0.156380	0.615847	0.701783	0.358096	-0.358747	-0.154880	0.920496
20184	1.608970	3.534340	9.007880	-0.007588	-0.001286	-0.007864	-0.460047	-0.659558	-0.720535	0.701337	-0.695475	0.156334	0.616001	0.701676	0.358040	-0.358704	-0.154805	0.920525
20185	1.589940	3.551110	9.056500	-0.011791	0.004513	-0.009858	-0.468969	-0.659473	-0.722478	0.701286	-0.695548	0.156242	0.616127	0.701615	0.357945	-0.358589	-0.154757	0.920578
20186	1.571740	3.499870	9.068330	-0.010272	0.000011	-0.002376	-0.462856	-0.660727	-0.726554	0.701234	-0.695593	0.156275	0.616196	0.701593	0.357868	-0.358572	-0.154653	0.920602
20187	1.546250	3.521410	9.075480	-0.008693	-0.000626	-0.003764	-0.467496	-0.655908	-0.717420	0.701202	-0.695631	0.156251	0.616268	0.701569	0.357791	-0.358512	-0.154591	0.920636
20188	1.546420	3.520770	9.075700	-0.006542	-0.005808	-0.003101	-0.466254	-0.656853	-0.724048	0.701139	-0.695672	0.156348	0.616312	0.701556	0.357742	-0.358558	-0.154468	0.920639
20189	1.572410	3.497760	9.069030	-0.008601	-0.008264	-0.000163	-0.465260	-0.658230	-0.723171	0.701102	-0.695696	0.156408	0.616358	0.701557	0.357661	-0.358552	-0.154353	0.920660
20190	1.638140	3.558070	9.022610	-0.013139	-0.012406	-0.001603	-0.458943	-0.660211	-0.727324	0.701050	-0.695710	0.156577	0.616394	0.701591	0.357532	-0.358592	-0.154134	0.920682
20191	1.617250	3.561990	9.012840	-0.018869	-0.005175	-0.006810	-0.463038	-0.666821	-0.717885	0.700982	-0.695776	0.156586	0.616523	0.701562	0.357366	-0.358501	-0.153969	0.920745
20192	1.628200	3.538690	9.037730	-0.013232	-0.004765	-0.005206	-0.460397	-0.663522	-0.724564	0.700864	-0.695894	0.156590	0.616676	0.701474	0.357274	-0.358469	-0.153835	0.920780
20193	1.588710	3.453670	9.078060	-0.020392	-0.000667	-0.014294	-0.464190	-0.661449	-0.724657	0.700767	-0.696006	0.156530	0.616864	0.701395	0.357106	-0.358337	-0.153690	0.920855
20194	1.616980	3.519350	9.053060	-0.013228	-0.001687	-0.009477	-0.460552	-0.656512	-0.725667	0.700662	-0.696116	0.156508	0.617018	0.701312	0.357003	-0.358277	-0.153570	0.920899
20195	1.609710	3.445950	9.089270	-0.015180	-0.002556	-0.015743	-0.465123	-0.664243	-0.716696	0.700549	-0.696241	0.156461	0.617196	0.701215	0.356885	-0.358190	-0.153448	0.920952
20196	1.623900	3.483180	9.019920	-0.013172	0.002186	-0.018348	-0.468078	-0.662899	-0.724566	0.700379	-0.696427	0.156393	0.617420	0.701052	0.356819	-0.358138	-0.153348	0.920990
20197	1.640530	3.416980	9.124750	-0.008586	0.004047	-0.017241	-0.461054	-0.654596	-0.721264	0.700280	-0.696552	0.156279	0.617585	0.700934	0.356764	-0.358046	-0.153319	0.921030
20198	1.645980	3.527870	9.050770	-0.000459	0.015372	-0.024056	-0.462687	-0.660138	-0.732380	0.700153	-0.696721	0.156096	0.617768	0.700751	0.356806	-0.357979	-0.153388	0.921045
20199	1.629190	3.567130	9.043720	-0.001090	0.016046	-0.017237	-0.452662	-0.659593	-0.723205	0.700097	-0.696827	0.155872	0.617906	0.700622	0.356821	-0.357850	-0.153495	0.921077
20200	1.609020	3.517110	9.055340	0.001971	0.022420	-0.023614	-0.454185	-0.653339	-0.723096	0.700050	-0.696945	0.155556	0.618077	0.700472	0.356820	-0.357647	-0.153646	0.921131
20201	1.541700	3.456250	9.102120	0.003020	0.017894	-0.018851	-0.456534	-0.653025	-0.722111	0.699991	-0.697060	0.155309	0.618212	0.700325	0.356874	-0.357530	-0.153795	0.921151
20202	1.536670	3.445190	9.043590	0.013922	0.014136	-0.019021	-0.455408	-0.655461	-0.721487	0.699945	-0.697149	0.155114	0.618297	0.700201	0.356971	-0.357473	-0.153953	0.921147
20203	1.516230	3.502870	9.052950	0.016554	0.012053	-0.019913	-0.458887	-0.660773	-0.730957	0.699857	-0.697281	0.154917	0.618391	0.700025	0.357151	-0.357480	-0.154156	0.921110
20204	1.482390	3.493180	9.056500	0.016023	0.008161	-0.013758	-0.462933	-0.659728	-0.726587	0.699817	-0.697350	0.154788	0.618437	0.699925	0.357268	-0.357481	-0.154296	0.921086
20205	1.492230	3.511400	9.041870	0.014018	0.003417	-0.011153	-0.456695	-0.657506	-0.718699	0.699753	-0.697433	0.154701	0.618479	0.699815	0.357412	-0.357533	-0.154420	0.921045
20206	1.462360	3.552020	9.065300	0.010538	-0.002178	-0.012098	-0.456793	-0.666493	-0.723115	0.699646	-0.697541	0.154702	0.618543	0.699702	0.357521	-0.357631	-0.154448	0.921003
20207	1.494840	3.526130	9.099410	0.014695	-0.008773	-0.005496	-0.454488	-0.657205	-0.723409	0.699573	-0.697603	0.154748	0.618543	0.699630	0.357662	-0.357773	-0.154492	0.920940
20208	1.420330	3.526250	9.082390	0.005736	-0.018551	-0.013322	-0.453015	-0.665203	-0.721155	0.699377	-0.697779	0.154841	0.618679	0.699477	0.357725	-0.357921	-0.154388	0.920900
20209	1.443870	3.522370	9.091760	0.020006	-0.035776	-0.013333	-0.449132	-0.655041	-0.724725	0.699159	-0.697938	0.155108	0.618715	0.699342	0.357927	-0.358284	-0.154281	0.920777
20210	1.630790	3.508970	9.043680	0.030225	-0.033487	-0.010627	-0.457337	-0.657273	-0.722744	0.698941	-0.698110	0.155316	0.618755	0.699179	0.358177	-0.358641	-0.154243	0.920644
20211	1.672310	3.557150	9.040870	0.032649	-0.026435	-0.010194	-0.468645	-0.663110	-0.721837	0.698776	-0.698233	0.155508	0.618723	0.699046	0.358491	-0.359017	-0.154289	0.920490
20212	1.586930	3.610560	9.073950	0.034226	-0.023985	-0.015867	-0.463159	-0.662046	-0.723848	0.698576	-0.698386	0.155718	0.618708	0.698884	0.358834	-0.359433	-0.154329	0.920321
20213	1.548440	3.713400	9.033160	0.028113	-0.027494	-0.015923	-0.462720	-0.660083	-0.722771	0.698371	-0.698551	0.155899	0.618732	0.698719	0.359114	-0.359789	-0.154335	0.920181
20214	1.483190	3.642100	9.020110	0.019100	-0.038068	-0.019139	-0.460832	-0.667127	-0.731995	0.698116	-0.698733	0.156222	0.618785	0.698572	0.359309	-0.360193	-0.154172	0.920050
20215	1.548190	3.539400	9.068150	0.023466	-0.047614	-0.022438	-0.463922	-0.660218	-0.722320	0.697799	-0.698974	0.156564	0.618871	0.698368	0.359557	-0.360660	-0.154005	0.919895
20216	1.538840	3.406880	9.024230	0.031577	-0.042418	-0.020750	-0.467072	-0.660495	-0.713035	0.697545	-0.699152	0.156898	0.618882	0.698212	0.359840	-0.361131	-0.153904	0.919727
20217	1.489070	3.288300	9.132460	0.033695	-0.051444	-0.011223	-0.467463	-0.661293	-0.720640	0.697283	-0.699320	0.157316	0.618853	0.698071	0.360164	-0.361688	-0.153781	0.919529
20218	1.829490	3.550260	9.017490	0.022408	-0.049210	-0.018703	-0.460796	-0.660296	-0.719355	0.696954	-0.699543	0.157782	0.618889	0.697896	0.360441	-0.362260	-0.153562	0.919340
20219	1.702960	3.544990	8.993910	0.017394	-0.029765	-0.021409	-0.468486	-0.665557	-0.717163	0.696706	-0.699748	0.157964	0.618989	0.697708	0.360632	-0.362564	-0.153477	0.919234
20220	1.527590	3.217160	9.143460	0.014281	-0.027704	-0.023237	-0.451574	-0.663127	-0.716958	0.696429	-0.699976	0.158179	0.619107	0.697507	0.360819	-0.362896	-0.153355	0.919124
20221	1.561810	3.609430	9.037700	0.017403	-0.032824	-0.017149	-0.456701	-0.658967	-0.715025	0.696197	-0.700156	0.158405	0.619177	0.697350	0.361003	-0.363222	-0.153249	0.919013
20222	1.605960	3.783800	8.977400	0.006762	-0.040490	-0.018620	-0.460470	-0.660833	-0.712314	0.695882	-0.700407	0.158675	0.619358	0.697156	0.361068	-0.363516	-0.152984	0.918941
20223	1.589980	3.499980	9.048130	0.002968	-0.032409	-0.017548	-0.465822	-0.662571	-0.714877	0.695649	-0.700589	0.158895	0.619483	0.697017	0.361120	-0.363750	-0.152780	0.918882
20224	1.689310	3.535710	9.034610	0.017022	-0.037382	-0.020571	-0.463239	-0.664819	-0.719602	0.695328	-0.700837	0.159205	0.619592	0.696806	0.361340	-0.364175	-0.152608	0.918742
20225	1.802470	3.571700	8.989560	0.016206	-0.020660	-0.025559	-0.462034	-0.663022	-0.720141	0.695087	-0.701057	0.159287	0.619725	0.696591	0.361527	-0.364409	-0.152578	0.918654
20226	1.749490	3.528970	9.021490	0.020630	-0.011948	-0.023465	-0.461698	-0.667777	-0.723514	0.694894	-0.701238	0.159334	0.619817	0.696402	0.361734	-0.364622	-0.152609	0.918565
20227	1.702210	3.558240	9.017550	0.013200	-0.002638	-0.022310	-0.466055	-0.662558	-0.715465	0.694739	-0.701408	0.159263	0.619938	0.696214	0.361888	-0.364712	-0.152684	0.918517
20228	1.658310	3.569770	8.996960	0.006504	-0.001627	-0.024390	-0.466467	-0.658146	-0.730346	0.694571	-0.701584	0.159219	0.620086	0.696036	0.361978	-0.364780	-0.152690	0.918489
20229	1.621450	3.576030	9.018030	0.000773	-0.000573	-0.021025	-0.466753	-0.669757	-0.719233	0.694431	-0.701742	0.159134	0.620243	0.695876	0.362015	-0.364779	-0.152693	0.918489
20230	1.674600	3.583040	9.023800	0.004354	0.000470	-0.020767	-0.461947	-0.664303	-0.727415	0.694369	-0.701808	0.159115	0.620305	0.695810	0.362035	-0.364793	-0.152686	0.918484
20231	1.661890	3.606030	8.999200	0.014751	0.020335	-0.022252	-0.461748	-0.660084	-0.719579	0.694297	-0.701942	0.158833	0.620420	0.695621	0.362203	-0.364733	-0.152933	0.918467
20232	1.612140	3.635010	8.995760	0.017055	0.025001	-0.007971	-0.460508	-0.669124	-0.716375	0.694393	-0.701899	0.158609	0.620375	0.695610	0.362300	-0.364628	-0.153181	0.918467
20233	1.584230	3.620300	9.041290	0.011972	0.026174	-0.016070	-0.465652	-0.662344	-0.724936	0.694381	-0.701981	0.158297	0.620457	0.695468	0.362432	-0.364510	-0.153449	0.918469
20234	1.621840	3.598610	9.003180	0.004364	0.017926	-0.010753	-0.470930	-0.662723	-0.725083	0.694385	-0.702015	0.158126	0.620505	0.695406	0.362470	-0.364421	-0.153576	0.918483
20235	1.574410	3.481420	9.041140	-0.002239	0.017446	-0.017787	-0.462159	-0.666524	-0.717032	0.694331	-0.702122	0.157887	0.620651	0.695273	0.362475	-0.364276	-0.153685	0.918523
20236	1.724560	3.377880	9.075870	-0.003353	0.021169	-0.017951	-0.453993	-0.671777	-0.719623	0.694330	-0.702166	0.157699	0.620731	0.695209	0.362460	-0.364140	-0.153778	0.918561
20237	1.722590	3.535270	9.093850	-0.000590	0.035868	-0.018414	-0.461569	-0.675983	-0.716487	0.694339	-0.702249	0.157289	0.620875	0.695070	0.362480	-0.363878	-0.154027	0.918623
20238	1.670340	3.639720	9.013630	0.000375	0.042856	-0.026164	-0.459238	-0.665074	-0.716421	0.694238	-0.702468	0.156758	0.621150	0.694780	0.362564	-0.363602	-0.154336	0.918681
20239	1.540500	3.576660	9.014030	-0.000628	0.042028	-0.027006	-0.461093	-0.665395	-0.720604	0.694216	-0.702601	0.156260	0.621354	0.694581	0.362598	-0.363296	-0.154628	0.918752
20240	1.475310	3.575130	8.967160	0.000079	0.032939	-0.025623	-0.460736	-0.662546	-0.718314	0.694157	-0.702739	0.155896	0.621539	0.694396	0.362634	-0.363091	-0.154829	0.918800
20241	1.558190	3.593510	8.969490	-0.002353	0.022025	-0.017151	-0.455208	-0.665543	-0.721374	0.694123	-0.702834	0.155618	0.621681	0.694268	0.362636	-0.362914	-0.154969	0.918846
20242	1.509110	3.582220	9.005320	-0.004379	0.016482	-0.009905	-0.455947	-0.666516	-0.723178	0.694116	-0.702877	0.155458	0.621771	0.694215	0.362583	-0.362773	-0.155015	0.918894
20243	1.568820	3.545510	9.091930	-0.004148	0.007364	-0.011236	-0.451372	-0.665347	-0.723360	0.694065	-0.702954	0.155336	0.621878	0.694131	0.362559	-0.362686	-0.155040	0.918924
20244	1.736890	3.530850	9.076470	-0.003380	0.017321	-0.009077	-0.450209	-0.663993	-0.716925	0.694062	-0.703002	0.155130	0.621991	0.694070	0.362482	-0.362497	-0.155096	0.918989
20245	1.586490	3.578680	9.064030	0.000081	0.022931	-0.008151	-0.456382	-0.662185	-0.724223	0.694087	-0.703034	0.154876	0.622062	0.694002	0.362492	-0.362329	-0.155259	0.919028
20246	1.551600	3.605680	9.029670	0.001240	0.020006	-0.012609	-0.459221	-0.666136	-0.717555	0.694066	-0.703104	0.154650	0.622179	0.693908	0.362470	-0.362167	-0.155358	0.919075
20247	1.547180	3.554730	9.010380	-0.005466	0.014056	-0.001500	-0.450042	-0.666126	-0.727065	0.694100	-0.703103	0.154502	0.622224	0.693895	0.362419	-0.362026	-0.155420	0.919120
20248	1.459430	3.565780	9.083990	-0.000521	-0.000817	0.001896	-0.451928	-0.660383	-0.711628	0.694093	-0.703106	0.154517	0.622243	0.693902	0.362372	-0.362006	-0.155373	0.919136
20249	1.477550	3.577610	9.111140	-0.003446	-0.008687	0.003362	-0.453085	-0.662045	-0.727765	0.694075	-0.703107	0.154595	0.622246	0.693921	0.362331	-0.362035	-0.155289	0.919139
20250	1.612850	3.538840	9.041080	-0.000389	-0.008455	0.005523	-0.456973	-0.666962	-0.721017	0.694065	-0.703093	0.154703	0.622241	0.693961	0.362264	-0.362063	-0.155172	0.919147
20251	1.566550	3.565830	9.037600	-0.002447	-0.007849	0.004192	-0.453658	-0.666167	-0.725021	0.694055	-0.703087	0.154777	0.622235	0.693983	0.362231	-0.362092	-0.155100	0.919148
20252	1.444230	3.620550	9.093290	-0.006414	-0.017350	0.009448	-0.446635	-0.658408	-0.725255	0.694040	-0.703059	0.154973	0.622218	0.694056	0.362119	-0.362151	-0.154898	0.919159
20253	1.459150	3.491680	9.119870	-0.006761	-0.025005	0.010344	-0.455191	-0.661462	-0.719667	0.694006	-0.703037	0.155227	0.622185	0.694129	0.362037	-0.362272	-0.154676	0.919149
20254	1.580360	3.521390	9.117230	0.007785	-0.029932	0.010067	-0.457100	-0.665193	-0.717167	0.693963	-0.703011	0.155538	0.622122	0.694206	0.361998	-0.362464	-0.154450	0.919111
20255	1.744790	3.512880	9.059090	0.023399	-0.008020	-0.001813	-0.457323	-0.664248	-0.717097	0.693915	-0.703046	0.155592	0.622064	0.694146	0.362212	-0.362655	-0.154556	0.919018
20256	1.827350	3.559990	8.962660	0.039664	0.007075	-0.011971	-0.446182	-0.669758	-0.727187	0.693829	-0.703150	0.155503	0.622030	0.693975	0.362599	-0.362877	-0.154854	0.918880
20257	1.774030	3.569550	9.014080	0.034090	0.032639	-0.026012	-0.453881	-0.668194	-0.712911	0.693778	-0.703290	0.155096	0.622101	0.693728	0.362948	-0.362852	-0.155320	0.918811
20258	1.809640	3.550620	8.975510	0.036779	0.049640	-0.026173	-0.453866	-0.669397	-0.722769	0.693703	-0.703496	0.154498	0.622271	0.693394	0.363296	-0.362705	-0.155880	0.918774
20259	1.694530	3.570730	9.038490	0.034289	0.069301	-0.029509	-0.453423	-0.666898	-0.726107	0.693763	-0.703603	0.153740	0.622366	0.693122	0.363652	-0.362427	-0.156606	0.918761
20260	1.380270	3.614350	9.065470	0.027069	0.069502	-0.029736	-0.457950	-0.668304	-0.719539	0.693824	-0.703706	0.152991	0.622503	0.692874	0.363889	-0.362074	-0.157237	0.918792
20261	1.262130	3.659040	9.031160	0.019049	0.040660	-0.032829	-0.446357	-0.671851	-0.719179	0.693759	-0.703880	0.152484	0.622677	0.692602	0.364110	-0.361900	-0.157656	0.918789
20262	1.296940	3.744950	8.990490	0.018192	0.013913	-0.035379	-0.454389	-0.667959	-0.720373	0.693526	-0.704168	0.152217	0.622925	0.692265	0.364326	-0.361921	-0.157849	0.918748
20263	1.372300	3.680260	8.970000	0.010205	-0.002827	-0.024494	-0.449263	-0.673065	-0.716211	0.693355	-0.704353	0.152140	0.623073	0.692066	0.364452	-0.361993	-0.157900	0.918710
20264	1.376400	3.626120	8.991460	0.010556	-0.013437	-0.030765	-0.451359	-0.657882	-0.711976	0.693047	-0.704655	0.152143	0.623315	0.691769	0.364600	-0.362165	-0.157853	0.918651
20265	1.349330	3.598320	8.978050	0.002850	-0.035432	-0.030118	-0.455935	-0.673324	-0.721471	0.692723	-0.704930	0.152345	0.623529	0.691541	0.364668	-0.362418	-0.157623	0.918590
20266	1.606460	3.437160	9.061160	-0.004456	-0.052040	-0.030723	-0.448634	-0.667373	-0.719374	0.692329	-0.705231	0.152741	0.623763	0.691331	0.364666	-0.362768	-0.157195	0.918525
20267	1.872770	3.445730	8.974350	-0.003581	-0.031438	-0.019587	-0.456113	-0.665638	-0.719486	0.692085	-0.705427	0.152945	0.623926	0.691188	0.364658	-0.362953	-0.156948	0.918495
20268	1.904130	3.610410	8.814720	-0.011663	0.000661	-0.015175	-0.450579	-0.678601	-0.718718	0.691985	-0.705534	0.152901	0.624088	0.691105	0.364538	-0.362865	-0.156831	0.918549
20269	1.669420	3.803910	8.703400	-0.023491	0.020278	-0.015399	-0.446970	-0.663718	-0.716520	0.691955	-0.705619	0.152645	0.624294	0.691022	0.364341	-0.362567	-0.156812	0.918670
20270	2.429130	3.412390	8.649550	-0.028748	0.049161	-0.062261	-0.448049	-0.668755	-0.718524	0.691646	-0.706073	0.151940	0.624937	0.690533	0.364167	-0.362048	-0.156922	0.918856
20271	3.460450	2.841440	8.675420	0.009064	0.191660	-0.120645	-0.444478	-0.672063	-0.722390	0.691576	-0.706615	0.149726	0.625754	0.689656	0.364428	-0.360769	-0.158338	0.919116
20272	1.942700	2.594770	9.488300	0.065610	0.317699	-0.169090	-0.441672	-0.672232	-0.712946	0.691576	-0.707359	0.146173	0.626788	0.688280	0.365249	-0.358970	-0.160978	0.919362
20273	0.139895	3.301270	9.822460	0.105670	0.260074	-0.131748	-0.433118	-0.676087	-0.722114	0.691673	-0.707854	0.143286	0.627336	0.687165	0.366407	-0.357824	-0.163545	0.919356
20274	0.235075	4.214280	9.250600	0.111096	0.114326	-0.089147	-0.443547	-0.667386	-0.727402	0.691359	-0.708448	0.141863	0.627731	0.686190	0.367556	-0.357739	-0.165061	0.919118
20275	0.017999	4.223980	9.050460	0.074519	0.005926	-0.028697	-0.438296	-0.678043	-0.722993	0.691191	-0.708646	0.141689	0.627678	0.685852	0.368277	-0.358156	-0.165614	0.918856
20276	-0.148043	3.906280	9.084780	0.037499	-0.152224	0.023547	-0.433785	-0.665320	-0.724265	0.690807	-0.708720	0.143185	0.627385	0.685983	0.368531	-0.359408	-0.164752	0.918522
20277	1.463670	3.814880	8.947060	0.011016	-0.236460	0.056297	-0.444395	-0.674605	-0.718314	0.690300	-0.708732	0.145551	0.626972	0.686353	0.368546	-0.361100	-0.163151	0.918144
20278	2.421330	3.828280	8.777480	0.025523	-0.159271	0.040171	-0.447542	-0.681288	-0.715722	0.689972	-0.708720	0.147156	0.626636	0.686604	0.368649	-0.362307	-0.162144	0.917847
20279	2.247250	3.678120	8.917450	0.031849	-0.066919	0.028178	-0.451886	-0.682807	-0.723528	0.689897	-0.708646	0.147861	0.626342	0.686741	0.368895	-0.362958	-0.161888	0.917635
20280	2.131720	3.599100	8.897700	0.043339	-0.017025	0.027399	-0.435812	-0.673007	-0.724018	0.689937	-0.708555	0.148112	0.626052	0.686795	0.369285	-0.363381	-0.162058	0.917437
20281	2.132840	3.811100	8.932040	0.046405	0.049035	0.008949	-0.443980	-0.678585	-0.713236	0.690163	-0.708425	0.147681	0.625837	0.686772	0.369693	-0.363323	-0.162724	0.917343
20282	2.042040	3.762620	9.141460	0.035886	0.100925	-0.004471	-0.448412	-0.677642	-0.711533	0.690403	-0.708394	0.146703	0.625865	0.686591	0.369981	-0.362817	-0.163620	0.917384
20283	1.463140	3.854050	9.157690	0.033693	0.142049	-0.004292	-0.440488	-0.671398	-0.713518	0.690883	-0.708201	0.145370	0.625789	0.686493	0.370291	-0.362036	-0.164857	0.917471
20284	0.854019	3.826560	9.179820	0.022317	0.116585	0.010076	-0.446683	-0.676141	-0.721400	0.691280	-0.708023	0.144347	0.625711	0.686450	0.370502	-0.361410	-0.165801	0.917547
20285	0.686984	3.934180	9.101530	0.012450	0.056809	0.022512	-0.439788	-0.680467	-0.719902	0.691617	-0.707785	0.143895	0.625526	0.686577	0.370578	-0.361085	-0.166288	0.917587
20286	0.766538	3.761600	9.085580	-0.011399	-0.022603	0.041372	-0.444138	-0.676331	-0.719712	0.691747	-0.707586	0.144249	0.625337	0.686849	0.370395	-0.361164	-0.166016	0.917605
20287	1.082590	3.576740	9.103380	-0.016994	-0.071323	0.056173	-0.442574	-0.668642	-0.718253	0.691832	-0.707330	0.145098	0.625025	0.687263	0.370153	-0.361541	-0.165394	0.917569
20288	1.336740	3.601610	9.066280	-0.007909	-0.087350	0.062319	-0.439953	-0.673963	-0.721734	0.691903	-0.707045	0.146142	0.624636	0.687725	0.369951	-0.362078	-0.164685	0.917485
20289	1.478580	3.540690	9.052360	-0.010096	-0.101245	0.060929	-0.446201	-0.674564	-0.725978	0.691907	-0.706804	0.147282	0.624267	0.688161	0.369764	-0.362705	-0.163899	0.917378
20290	1.581790	3.472340	9.000540	-0.004899	-0.099962	0.055080	-0.444247	-0.671077	-0.724382	0.691887	-0.706592	0.148392	0.623940	0.688567	0.369559	-0.363305	-0.163105	0.917282
20291	1.763760	3.546870	8.964300	0.003956	-0.092974	0.035899	-0.443577	-0.677727	-0.707624	0.691764	-0.706508	0.149364	0.623694	0.688802	0.369536	-0.363962	-0.162475	0.917133
20292	1.819260	3.557990	8.927320	0.005451	-0.078217	0.012875	-0.453962	-0.671899	-0.716779	0.691466	-0.706642	0.150107	0.623693	0.688799	0.369544	-0.364529	-0.161907	0.917009
20293	1.637000	3.628260	8.949880	0.005962	-0.067390	-0.006641	-0.448481	-0.674091	-0.719124	0.691170	-0.706808	0.150686	0.623734	0.688730	0.369604	-0.365021	-0.161471	0.916890
20294	1.554020	3.597160	8.888340	-0.000973	-0.072500	-0.017080	-0.456541	-0.674333	-0.715978	0.690808	-0.707029	0.151309	0.623848	0.688632	0.369594	-0.365509	-0.160925	0.916791
20295	1.763170	3.526860	8.831740	-0.004158	-0.068169	-0.018616	-0.446213	-0.676790	-0.714482	0.690434	-0.707278	0.151851	0.624008	0.688495	0.369579	-0.365944	-0.160413	0.916708
20296	1.845770	3.541910	8.905440	-0.002488	-0.048138	-0.028634	-0.444197	-0.671045	-0.713239	0.690031	-0.707597	0.152193	0.624258	0.688256	0.369601	-0.366277	-0.160028	0.916642
20297	1.869360	3.537320	8.915160	-0.002800	-0.017662	-0.026345	-0.447323	-0.667530	-0.715919	0.689793	-0.707819	0.152244	0.624467	0.688062	0.369610	-0.366370	-0.159883	0.916630
20298	1.931540	3.471800	8.926650	-0.005020	0.005770	-0.021708	-0.445759	-0.671464	-0.718454	0.689642	-0.707993	0.152115	0.624692	0.687896	0.369538	-0.366270	-0.159824	0.916680
20299	1.702300	3.577040	9.047890	0.000476	0.045081	-0.009171	-0.454079	-0.673962	-0.709478	0.689741	-0.707996	0.151654	0.624770	0.687819	0.369551	-0.365951	-0.160146	0.916751
20300	1.380610	3.599630	9.089720	0.001723	0.045092	0.013252	-0.450800	-0.671593	-0.714845	0.689952	-0.707865	0.151306	0.624707	0.687886	0.369533	-0.365660	-0.160438	0.916816
20301	1.198620	3.596540	9.119860	0.002553	0.016800	0.045212	-0.450128	-0.671414	-0.714989	0.690286	-0.707539	0.151305	0.624402	0.688189	0.369482	-0.365550	-0.160573	0.916837
20302	1.317940	3.507160	9.062270	0.003827	-0.008384	0.075576	-0.446968	-0.675242	-0.715334	0.690723	-0.707032	0.151686	0.623870	0.688726	0.369381	-0.365634	-0.160508	0.916814
20303	1.721050	3.714820	9.016800	0.007831	-0.008052	0.083159	-0.451287	-0.670905	-0.716939	0.691202	-0.706483	0.152053	0.623283	0.689289	0.369321	-0.365728	-0.160504	0.916778
20304	1.573510	3.829520	9.039270	0.000915	0.012826	0.060142	-0.449129	-0.671435	-0.712964	0.691578	-0.706093	0.152162	0.622920	0.689678	0.369209	-0.365639	-0.160552	0.916805
20305	1.731900	3.678700	8.983330	-0.000570	0.021939	0.039012	-0.447900	-0.671946	-0.717190	0.691891	-0.705801	0.152092	0.622668	0.689943	0.369139	-0.365473	-0.160701	0.916845
20306	1.890490	3.579120	8.946980	0.002047	0.048149	0.025843	-0.455415	-0.665352	-0.712654	0.692167	-0.705605	0.151748	0.622554	0.690073	0.369088	-0.365147	-0.160999	0.916923
20307	1.989690	3.571640	9.016200	0.007094	0.075308	0.021667	-0.451384	-0.676848	-0.716775	0.692567	-0.705346	0.151123	0.622395	0.690203	0.369114	-0.364659	-0.161578	0.917015
20308	1.934390	3.675230	8.935770	0.009270	0.110623	0.023943	-0.448619	-0.672209	-0.711509	0.693116	-0.704997	0.150229	0.622187	0.690366	0.369159	-0.363969	-0.162400	0.917144
20309	1.355400	3.682950	9.146350	0.001379	0.149012	0.005300	-0.450342	-0.678802	-0.713236	0.693681	-0.704730	0.148868	0.622162	0.690389	0.369158	-0.362934	-0.163458	0.917366
20310	1.503280	3.736350	8.955440	0.001518	0.114006	-0.014575	-0.454284	-0.679352	-0.716742	0.693882	-0.704765	0.147767	0.622364	0.690169	0.369229	-0.362204	-0.164237	0.917516
20311	1.233160	3.749840	8.985790	0.000705	0.103275	-0.012089	-0.450030	-0.672097	-0.718037	0.694171	-0.704690	0.146761	0.622462	0.690070	0.369248	-0.361481	-0.164968	0.917669
20312	0.976077	3.622130	8.984880	-0.003906	0.053956	-0.001472	-0.447113	-0.678078	-0.714507	0.694325	-0.704638	0.146283	0.622499	0.690042	0.369239	-0.361121	-0.165311	0.917750
20313	0.873217	3.603750	9.013980	-0.010592	-0.010841	0.002921	-0.449072	-0.671431	-0.711585	0.694294	-0.704648	0.146380	0.622533	0.690068	0.369131	-0.361120	-0.165160	0.917777
20314	1.055420	3.515540	9.005320	-0.015781	-0.067920	0.028736	-0.443158	-0.676221	-0.716178	0.694129	-0.704657	0.147113	0.622469	0.690203	0.368988	-0.361548	-0.164552	0.917718
20315	1.335590	3.440860	9.039860	-0.013558	-0.109800	0.050041	-0.441994	-0.672320	-0.713972	0.694034	-0.704504	0.148292	0.622187	0.690566	0.368784	-0.362215	-0.163683	0.917610
20316	1.220150	3.549830	9.071030	-0.013658	-0.132690	0.058269	-0.440685	-0.664338	-0.717395	0.693763	-0.704474	0.149697	0.621995	0.690856	0.368565	-0.363064	-0.162586	0.917470
20317	1.279120	3.575700	9.051310	-0.020087	-0.171336	0.066742	-0.451274	-0.670894	-0.719857	0.693545	-0.704303	0.151501	0.621622	0.691346	0.368275	-0.364117	-0.161239	0.917290
20318	1.245560	3.536240	8.968380	-0.022098	-0.197318	0.068229	-0.448409	-0.679460	-0.718970	0.693236	-0.704161	0.153565	0.621271	0.691863	0.367896	-0.365304	-0.159634	0.917099
20319	0.881659	3.552020	9.033120	-0.024671	-0.242332	0.066215	-0.450447	-0.669402	-0.717082	0.692750	-0.704099	0.156017	0.620919	0.692356	0.367562	-0.366819	-0.157755	0.916819
20320	0.881630	3.745100	9.071740	-0.042873	-0.318251	0.088869	-0.459771	-0.667175	-0.708852	0.692016	-0.704102	0.159230	0.620602	0.692943	0.366992	-0.368737	-0.155146	0.916495
20321	1.566340	3.582760	8.955050	-0.048909	-0.362490	0.107971	-0.463055	-0.666479	-0.707963	0.691335	-0.703923	0.162934	0.620054	0.693766	0.366364	-0.370930	-0.152253	0.916095
20322	2.058020	3.319710	8.785330	-0.052139	-0.340245	0.115834	-0.462241	-0.668145	-0.712135	0.690766	-0.703649	0.166492	0.619455	0.694645	0.365711	-0.372985	-0.149486	0.915716
20323	1.980210	3.444830	8.727990	-0.051387	-0.301789	0.105432	-0.477168	-0.668650	-0.716675	0.690281	-0.703377	0.169627	0.618936	0.695450	0.365058	-0.374740	-0.147004	0.915401
20324	1.877100	3.341470	8.723380	-0.058374	-0.287558	0.095428	-0.478551	-0.670530	-0.707641	0.689828	-0.703091	0.172628	0.618463	0.696250	0.364334	-0.376352	-0.144564	0.915129
20325	1.448680	2.928330	8.789620	-0.067883	-0.281178	0.103798	-0.475418	-0.671109	-0.708014	0.689400	-0.702784	0.175565	0.618020	0.697064	0.363527	-0.377861	-0.142113	0.914891
20326	1.003890	2.603070	9.433130	-0.044882	-0.328937	0.084851	-0.479710	-0.661852	-0.700380	0.688629	-0.702700	0.178893	0.617633	0.697679	0.363007	-0.379895	-0.139487	0.914452
20327	1.811610	3.967830	9.288950	-0.035575	-0.364793	0.072671	-0.482401	-0.665225	-0.692676	0.687678	-0.702710	0.182478	0.617285	0.698226	0.362546	-0.382175	-0.136674	0.913927
20328	2.191710	3.701710	9.475700	-0.023514	-0.352810	0.058569	-0.482293	-0.661104	-0.705133	0.686616	-0.702842	0.185934	0.617005	0.698604	0.362295	-0.384530	-0.134035	0.913330
20329	2.399380	3.619360	9.338070	0.001237	-0.330843	0.028839	-0.485919	-0.667543	-0.696157	0.685509	-0.703093	0.189046	0.616819	0.698793	0.362247	-0.386797	-0.131717	0.912709
20330	2.967840	3.759130	9.292870	0.060938	-0.308544	-0.015102	-0.478180	-0.667241	-0.698853	0.684165	-0.703652	0.191813	0.616731	0.698561	0.362843	-0.389309	-0.129947	0.911895
