// Start Time: Unknown
// Update Rate: 100.0Hz
// Filter Profile: human (46.1)
// Firmware Version: 4.6.0
PacketCounter	Acc_X	Acc_Y	Acc_Z	Gyr_X	Gyr_Y	Gyr_Z	Mag_X	Mag_Y	Mag_Z	Mat[1][1]	Mat[2][1]	Mat[3][1]	Mat[1][2]	Mat[2][2]	Mat[3][2]	Mat[1][3]	Mat[2][3]	Mat[3][3]
19648	-9.796470	-0.876247	-0.510722	0.014014	-0.040070	0.007687	1.121275	0.095931	-0.236388	0.103092	0.002062	-0.994670	-0.848307	-0.521970	-0.089004	-0.519371	0.852961	-0.052062
19649	-9.701280	-0.843597	-0.541829	0.019206	-0.030992	0.012985	1.121700	0.096659	-0.231573	0.102059	0.001009	-0.994778	-0.857251	-0.507242	-0.088464	-0.504682	0.861803	-0.050904
19650	-9.701510	-0.842517	-0.539310	0.017014	-0.017789	0.011297	1.121767	0.091186	-0.240928	0.101873	0.001105	-0.994797	-0.857349	-0.507095	-0.088361	-0.504554	0.861889	-0.050712
19651	-9.748590	-0.845498	-0.481206	0.020176	-0.019560	0.014289	1.119520	0.087744	-0.239504	0.101662	0.001202	-0.994818	-0.857463	-0.506924	-0.088237	-0.504403	0.861990	-0.050504
19652	-9.798980	-0.807492	-0.412378	0.025462	-0.014764	0.015911	1.119317	0.094919	-0.239554	0.101451	0.001248	-0.994840	-0.857608	-0.506704	-0.088092	-0.504199	0.862119	-0.050335
19653	-9.791650	-0.787066	-0.424194	0.025956	-0.016899	0.018589	1.123139	0.086496	-0.238108	0.101203	0.001301	-0.994865	-0.857757	-0.506481	-0.087918	-0.503994	0.862250	-0.050142
19654	-9.789290	-0.794194	-0.389296	0.025462	-0.010900	0.014224	1.126619	0.094437	-0.239456	0.101026	0.001323	-0.994883	-0.857900	-0.506261	-0.087789	-0.503787	0.862379	-0.050011
19655	-9.781870	-0.774241	-0.402217	0.021720	0.001156	0.010538	1.111981	0.089815	-0.243421	0.100930	0.001263	-0.994893	-0.858021	-0.506074	-0.087687	-0.503600	0.862489	-0.049994
19656	-9.732570	-0.777842	-0.425118	0.009411	0.002850	0.010964	1.117091	0.084845	-0.245151	0.100850	0.001183	-0.994901	-0.858080	-0.505993	-0.087583	-0.503516	0.862537	-0.050014
19657	-9.782020	-0.771989	-0.402908	0.009285	0.011216	0.015627	1.126696	0.084634	-0.231976	0.100748	0.001014	-0.994911	-0.858144	-0.505912	-0.087414	-0.503426	0.862584	-0.050099
19658	-9.774550	-0.751872	-0.417137	0.017401	0.003922	0.011903	1.121667	0.083614	-0.241278	0.100666	0.000920	-0.994920	-0.858244	-0.505762	-0.087304	-0.503273	0.862672	-0.050123
19659	-9.812440	-0.800268	-0.462573	0.019583	-0.005422	0.011913	1.124735	0.091115	-0.249224	0.100493	0.000916	-0.994937	-0.858358	-0.505593	-0.087164	-0.503113	0.862772	-0.050022
19660	-9.861970	-0.794541	-0.438197	0.019125	-0.023079	0.012305	1.125039	0.087017	-0.236580	0.100271	0.001053	-0.994960	-0.858467	-0.505428	-0.087051	-0.502972	0.862868	-0.049776
19661	-9.854640	-0.774475	-0.449329	0.029218	-0.023195	0.015235	1.123277	0.086303	-0.233315	0.099968	0.001187	-0.994990	-0.858634	-0.505175	-0.086871	-0.502747	0.863016	-0.049482
19662	-9.834640	-0.752780	-0.407752	0.037226	-0.014383	0.012796	1.120624	0.088528	-0.235402	0.099786	0.001246	-0.995008	-0.858834	-0.504854	-0.086762	-0.502442	0.863204	-0.049307
19663	-9.751820	-0.766819	-0.381033	0.038915	-0.002026	0.004370	1.126729	0.083602	-0.238593	0.099660	0.001253	-0.995021	-0.859040	-0.504517	-0.086676	-0.502113	0.863401	-0.049204
19664	-9.689130	-0.801837	-0.394429	0.039465	-0.000495	0.002685	1.113610	0.084984	-0.243617	0.099635	0.001244	-0.995023	-0.859241	-0.504176	-0.086669	-0.501775	0.863600	-0.049165
19665	-9.637240	-0.814925	-0.383674	0.024504	0.000859	0.002804	1.125810	0.090322	-0.240052	0.099516	0.001244	-0.995035	-0.859375	-0.503963	-0.086579	-0.501568	0.863725	-0.049083
19666	-9.627160	-0.804392	-0.364058	0.015379	0.004674	0.004538	1.118469	0.093261	-0.237102	0.099501	0.001181	-0.995037	-0.859457	-0.503830	-0.086541	-0.501431	0.863802	-0.049116
19667	-9.675850	-0.831574	-0.385406	0.003666	-0.000028	0.003986	1.127240	0.080271	-0.243077	0.099352	0.001201	-0.995052	-0.859489	-0.503795	-0.086424	-0.501406	0.863823	-0.049021
19668	-9.763820	-0.843625	-0.363878	0.005213	-0.002748	0.007665	1.119634	0.088289	-0.235672	0.099272	0.001186	-0.995060	-0.859523	-0.503750	-0.086351	-0.501363	0.863849	-0.048989
19669	-9.849340	-0.819690	-0.422667	0.016417	0.000206	0.007224	1.120844	0.086247	-0.236125	0.099084	0.001210	-0.995078	-0.859623	-0.503603	-0.086208	-0.501229	0.863934	-0.048859
19670	-9.862050	-0.820800	-0.475573	0.026552	-0.000125	0.007474	1.121383	0.089018	-0.239233	0.099019	0.001173	-0.995085	-0.859764	-0.503374	-0.086147	-0.501001	0.864068	-0.048835
19671	-9.885520	-0.800319	-0.504276	0.041066	0.004293	0.000302	1.120182	0.085548	-0.242949	0.098906	0.001197	-0.995096	-0.859981	-0.503014	-0.086082	-0.500650	0.864278	-0.048722
19672	-9.867170	-0.803864	-0.541680	0.039555	-0.008907	-0.001970	1.118735	0.091756	-0.241121	0.098878	0.001284	-0.995099	-0.860177	-0.502672	-0.086120	-0.500318	0.864476	-0.048599
19673	-9.815960	-0.785226	-0.486334	0.034207	-0.001663	-0.003299	1.120660	0.083298	-0.243356	0.098767	0.001359	-0.995110	-0.860358	-0.502369	-0.086078	-0.500030	0.864652	-0.048449
19674	-9.777370	-0.768426	-0.484682	0.030456	0.002654	-0.003623	1.126773	0.085540	-0.242862	0.098811	0.001354	-0.995105	-0.860506	-0.502106	-0.086129	-0.499765	0.864805	-0.048449
19675	-9.767210	-0.758778	-0.465217	0.024095	0.006409	-0.006935	1.129584	0.077737	-0.236792	0.098745	0.001365	-0.995112	-0.860634	-0.501894	-0.086089	-0.499558	0.864928	-0.048385
19676	-9.726020	-0.750707	-0.431009	0.013420	0.009081	-0.007191	1.119752	0.091033	-0.244431	0.098852	0.001322	-0.995101	-0.860694	-0.501777	-0.086167	-0.499433	0.864996	-0.048464
19677	-9.755110	-0.725957	-0.369652	0.005900	0.009982	-0.004454	1.127518	0.086513	-0.242721	0.098760	0.001276	-0.995110	-0.860734	-0.501726	-0.086067	-0.499383	0.865026	-0.048452
19678	-9.824610	-0.742307	-0.386838	-0.013235	0.001899	-0.005921	1.122093	0.085399	-0.238672	0.098820	0.001290	-0.995104	-0.860662	-0.501840	-0.086120	-0.499495	0.864959	-0.048482
19679	-9.849830	-0.746576	-0.493046	-0.040896	-0.004910	-0.008328	1.121970	0.087049	-0.248022	0.098652	0.001401	-0.995121	-0.860469	-0.502191	-0.086010	-0.499861	0.864756	-0.048336
19680	-9.782070	-0.755280	-0.553326	-0.069079	-0.013481	-0.011731	1.127215	0.087077	-0.237110	0.098685	0.001576	-0.995117	-0.860112	-0.502788	-0.086093	-0.500469	0.864408	-0.048262
19681	-9.755440	-0.772503	-0.648466	-0.077761	-0.007728	-0.006335	1.120367	0.087021	-0.236189	0.098478	0.001676	-0.995138	-0.859739	-0.503453	-0.085927	-0.501149	0.864021	-0.048139
19682	-9.744600	-0.794715	-0.672879	-0.068178	-0.001870	-0.007786	1.118732	0.086870	-0.242592	0.098536	0.001731	-0.995132	-0.859390	-0.504041	-0.085972	-0.501737	0.863678	-0.048178
19683	-9.726080	-0.842577	-0.597610	-0.059701	0.000924	-0.005865	1.119278	0.086388	-0.247695	0.098440	0.001676	-0.995142	-0.859091	-0.504575	-0.085831	-0.502267	0.863366	-0.048231
19684	-9.719080	-0.836333	-0.454183	-0.045842	0.004230	-0.005995	1.125894	0.090306	-0.247435	0.098512	0.001669	-0.995134	-0.858855	-0.504970	-0.085869	-0.502657	0.863135	-0.048312
19685	-9.720720	-0.904858	-0.419002	-0.044278	0.009250	-0.005693	1.132452	0.089102	-0.244975	0.098442	0.001565	-0.995142	-0.858658	-0.505327	-0.085736	-0.503006	0.862927	-0.048401
19686	-9.756610	-0.931111	-0.388961	-0.038475	0.019657	-0.004771	1.121925	0.082615	-0.245900	0.098581	0.001421	-0.995128	-0.858460	-0.505659	-0.085765	-0.503317	0.862732	-0.048629
19687	-9.772410	-0.892173	-0.433489	-0.033711	0.018826	-0.002465	1.123794	0.080211	-0.239875	0.098503	0.001238	-0.995136	-0.858320	-0.505926	-0.085590	-0.503571	0.862576	-0.048773
19688	-9.834290	-0.889266	-0.466072	-0.024658	0.023179	-0.002216	1.121403	0.088959	-0.238918	0.098638	0.001050	-0.995123	-0.858194	-0.506139	-0.085599	-0.503760	0.862451	-0.049023
19689	-9.820810	-0.919919	-0.459316	-0.010754	0.018553	-0.001642	1.126557	0.085626	-0.242835	0.098623	0.000866	-0.995124	-0.858140	-0.506249	-0.085488	-0.503855	0.862387	-0.049185
19690	-9.788000	-0.853207	-0.481981	-0.012376	0.013728	0.000726	1.126236	0.087697	-0.235000	0.098685	0.000745	-0.995118	-0.858078	-0.506355	-0.085474	-0.503947	0.862325	-0.049331
19691	-9.769530	-0.856322	-0.521180	-0.006959	0.010160	-0.002318	1.119738	0.088398	-0.242566	0.098626	0.000641	-0.995124	-0.858049	-0.506423	-0.085367	-0.504009	0.862285	-0.049397
19692	-9.734230	-0.798299	-0.509752	-0.003798	0.008389	0.000676	1.115775	0.099094	-0.231545	0.098662	0.000566	-0.995121	-0.858031	-0.506456	-0.085358	-0.504033	0.862266	-0.049482
19693	-9.726640	-0.779208	-0.524372	-0.006552	0.012313	0.004033	1.127865	0.094363	-0.245061	0.098712	0.000428	-0.995116	-0.857980	-0.506546	-0.085327	-0.504109	0.862213	-0.049635
19694	-9.776790	-0.742083	-0.458807	-0.009765	0.014287	0.003716	1.122592	0.084212	-0.238522	0.098753	0.000286	-0.995112	-0.857935	-0.506630	-0.085285	-0.504178	0.862163	-0.049785
19695	-9.745770	-0.743068	-0.445347	-0.013576	0.018799	0.006075	1.126558	0.071536	-0.230053	0.098680	0.000075	-0.995119	-0.857891	-0.506734	-0.085110	-0.504267	0.862102	-0.049941
19696	-9.794320	-0.770030	-0.468673	-0.005532	0.019669	0.004341	1.126262	0.087786	-0.237041	0.098743	-0.000116	-0.995113	-0.857867	-0.506782	-0.085065	-0.504295	0.862074	-0.050140
19697	-9.800990	-0.820857	-0.501290	-0.002211	0.021157	-0.002381	1.130638	0.086928	-0.235642	0.098677	-0.000393	-0.995119	-0.857856	-0.506835	-0.084865	-0.504328	0.862043	-0.050350
19698	-9.738110	-0.856080	-0.517133	0.015885	0.022127	0.001507	1.121357	0.084892	-0.236447	0.098774	-0.000593	-0.995110	-0.857938	-0.506697	-0.084856	-0.504169	0.862124	-0.050557
19699	-9.706210	-0.889613	-0.548238	0.025992	0.025890	0.002765	1.129230	0.088055	-0.239528	0.098752	-0.000897	-0.995112	-0.858076	-0.506489	-0.084697	-0.503938	0.862246	-0.050786
19700	-9.753070	-0.893306	-0.494455	0.034981	0.026572	0.007387	1.118381	0.081730	-0.234083	0.098821	-0.001165	-0.995105	-0.858260	-0.506187	-0.084639	-0.503611	0.862423	-0.051022
19701	-9.716940	-0.866648	-0.528307	0.039185	0.024202	0.011380	1.125045	0.088218	-0.236425	0.098758	-0.001471	-0.995110	-0.858474	-0.505857	-0.084450	-0.503259	0.862616	-0.051220
19702	-9.751170	-0.823449	-0.534735	0.034902	0.022888	0.011744	1.130937	0.090911	-0.237748	0.098770	-0.001731	-0.995109	-0.858661	-0.505555	-0.084348	-0.502936	0.862792	-0.051420
19703	-9.733500	-0.793374	-0.530986	0.028934	0.032649	0.013086	1.124079	0.086633	-0.238475	0.098762	-0.002120	-0.995109	-0.858826	-0.505306	-0.084160	-0.502657	0.862937	-0.051725
19704	-9.771970	-0.809540	-0.535644	0.018780	0.032959	0.012813	1.121372	0.089324	-0.234963	0.098816	-0.002472	-0.995103	-0.858934	-0.505144	-0.084040	-0.502462	0.863032	-0.052039
19705	-9.746620	-0.760878	-0.546440	0.008198	0.039060	0.005491	1.124280	0.084449	-0.235739	0.098949	-0.002855	-0.995088	-0.858977	-0.505083	-0.083965	-0.502363	0.863066	-0.052430
19706	-9.767370	-0.748579	-0.545809	0.001211	0.041469	0.006526	1.125958	0.079161	-0.235981	0.099101	-0.003248	-0.995072	-0.858989	-0.505073	-0.083899	-0.502311	0.863071	-0.052843
19707	-9.774800	-0.767025	-0.536130	-0.000798	0.038363	0.000858	1.123608	0.085516	-0.239621	0.099169	-0.003651	-0.995064	-0.859005	-0.505069	-0.083756	-0.502270	0.863071	-0.053224
19708	-9.803170	-0.774060	-0.521486	-0.002869	0.031600	-0.000444	1.120191	0.091493	-0.235573	0.099330	-0.003925	-0.995047	-0.858991	-0.505093	-0.083756	-0.502263	0.863056	-0.053542
19709	-9.845880	-0.850940	-0.523308	-0.009257	0.027610	-0.000394	1.128913	0.083375	-0.234591	0.099452	-0.004152	-0.995034	-0.858948	-0.505169	-0.083743	-0.502313	0.863010	-0.053806
19710	-9.838100	-0.832162	-0.539594	-0.007100	0.026221	-0.001070	1.121435	0.086027	-0.240472	0.099592	-0.004374	-0.995019	-0.858911	-0.505230	-0.083748	-0.502347	0.862973	-0.054074
19711	-9.809040	-0.901862	-0.490459	-0.004951	0.020969	-0.000057	1.123115	0.087220	-0.236929	0.099601	-0.004569	-0.995017	-0.858912	-0.505244	-0.083657	-0.502344	0.862964	-0.054247
19712	-9.812650	-0.916811	-0.602983	-0.002250	0.013388	0.000962	1.130186	0.082113	-0.239347	0.099658	-0.004690	-0.995011	-0.858902	-0.505263	-0.083644	-0.502350	0.862953	-0.054382
19713	-9.776430	-0.890382	-0.635574	0.002940	0.006780	0.010333	1.125642	0.090051	-0.242751	0.099514	-0.004797	-0.995025	-0.858960	-0.505194	-0.083470	-0.502280	0.862993	-0.054394
19714	-9.815990	-0.874457	-0.594257	0.011935	0.015188	0.011593	1.119466	0.087511	-0.238288	0.099487	-0.004986	-0.995026	-0.859032	-0.505089	-0.083359	-0.502162	0.863053	-0.054533
19715	-9.787060	-0.810556	-0.492209	0.016204	0.016484	0.011232	1.135705	0.084829	-0.229871	0.099491	-0.005096	-0.995025	-0.859142	-0.504908	-0.083318	-0.501972	0.863158	-0.054612
19716	-9.808000	-0.797921	-0.489093	0.016811	0.013946	0.008561	1.121816	0.081574	-0.234506	0.099484	-0.005257	-0.995025	-0.859236	-0.504762	-0.083241	-0.501814	0.863242	-0.054733
19717	-9.793650	-0.727594	-0.473556	0.011554	0.016894	0.003553	1.119871	0.085257	-0.232835	0.099471	-0.005520	-0.995025	-0.859306	-0.504666	-0.083104	-0.501696	0.863297	-0.054943
19718	-9.778220	-0.689955	-0.502941	0.011028	0.030808	-0.001525	1.123836	0.089331	-0.234848	0.099635	-0.005777	-0.995007	-0.859360	-0.504570	-0.083123	-0.501570	0.863352	-0.055237
19719	-9.740560	-0.773366	-0.511483	0.000483	0.021254	-0.004782	1.127231	0.084478	-0.235606	0.099797	-0.005926	-0.994990	-0.859346	-0.504583	-0.083187	-0.501562	0.863343	-0.055448
19720	-9.722790	-0.744644	-0.507616	-0.005502	0.027146	-0.001770	1.122804	0.084154	-0.232652	0.099946	-0.006149	-0.994974	-0.859317	-0.504630	-0.083200	-0.501582	0.863314	-0.055720
19721	-9.732580	-0.755244	-0.529930	-0.006444	0.023459	-0.006436	1.125546	0.089901	-0.233428	0.100039	-0.006334	-0.994963	-0.859293	-0.504674	-0.083185	-0.501606	0.863287	-0.055930
19722	-9.771020	-0.772827	-0.533247	-0.004315	0.006630	-0.000346	1.121093	0.082847	-0.232977	0.100072	-0.006388	-0.994960	-0.859271	-0.504711	-0.083184	-0.501636	0.863265	-0.055996
19723	-9.785460	-0.766051	-0.620476	-0.001594	0.006778	-0.002701	1.123807	0.092236	-0.229092	0.100095	-0.006430	-0.994957	-0.859260	-0.504731	-0.083182	-0.501651	0.863252	-0.056046
19724	-9.821680	-0.792026	-0.589727	-0.002207	0.009311	-0.000032	1.122532	0.082638	-0.230717	0.100138	-0.006507	-0.994952	-0.859249	-0.504750	-0.083179	-0.501661	0.863241	-0.056136
19725	-9.782010	-0.806931	-0.632911	0.000453	0.009665	0.000290	1.124528	0.085306	-0.232555	0.100200	-0.006652	-0.994945	-0.859229	-0.504787	-0.083157	-0.501683	0.863218	-0.056296
19726	-9.756450	-0.835931	-0.572060	0.007897	0.020773	-0.002133	1.129630	0.082337	-0.232085	0.100320	-0.006819	-0.994932	-0.859267	-0.504719	-0.083182	-0.501594	0.863257	-0.056493
19727	-9.744130	-0.834424	-0.520997	0.008891	0.024247	-0.000145	1.124580	0.090871	-0.232850	0.100348	-0.007095	-0.994927	-0.859330	-0.504629	-0.083073	-0.501479	0.863307	-0.056736
19728	-9.744000	-0.834494	-0.523279	0.006228	0.023890	-0.000469	1.130717	0.089278	-0.236510	0.100469	-0.007298	-0.994913	-0.859362	-0.504574	-0.083079	-0.501401	0.863337	-0.056965
19729	-9.764770	-0.823047	-0.521606	0.014778	0.034196	-0.004566	1.125264	0.085290	-0.231565	0.100697	-0.007516	-0.994889	-0.859429	-0.504444	-0.083176	-0.501240	0.863412	-0.057255
19730	-9.788820	-0.771061	-0.510144	0.020041	0.042816	-0.004628	1.120111	0.082989	-0.230306	0.100950	-0.007859	-0.994861	-0.859525	-0.504271	-0.083233	-0.501025	0.863510	-0.057661
19731	-9.801820	-0.741138	-0.523204	0.029676	0.040744	-0.005323	1.121137	0.089172	-0.229681	0.101133	-0.008202	-0.994839	-0.859674	-0.504016	-0.083237	-0.500732	0.863655	-0.058024
19732	-9.825880	-0.689389	-0.511538	0.027123	0.032255	-0.007617	1.120666	0.082997	-0.234726	0.101357	-0.008439	-0.994814	-0.859802	-0.503782	-0.083328	-0.500466	0.863790	-0.058318
19733	-9.787140	-0.673010	-0.512256	0.020803	0.024214	-0.008561	1.134104	0.089583	-0.230571	0.101502	-0.008541	-0.994799	-0.859898	-0.503604	-0.083414	-0.500272	0.863892	-0.058462
19734	-9.806730	-0.694569	-0.554013	0.007012	0.020710	-0.011178	1.131091	0.083701	-0.226802	0.101699	-0.008660	-0.994778	-0.859922	-0.503544	-0.083529	-0.500191	0.863926	-0.058657
19735	-9.803180	-0.736146	-0.566688	0.005768	0.021919	-0.004154	1.129707	0.090832	-0.228558	0.101763	-0.008926	-0.994769	-0.859960	-0.503491	-0.083455	-0.500112	0.863954	-0.058913
19736	-9.781110	-0.724603	-0.495724	-0.002208	0.020859	-0.005130	1.117744	0.098344	-0.223080	0.101910	-0.009077	-0.994752	-0.859944	-0.503510	-0.083504	-0.500110	0.863942	-0.059119
19737	-9.769910	-0.746931	-0.521635	-0.015013	0.013124	-0.002375	1.119964	0.088175	-0.231983	0.102165	-0.009183	-0.994725	-0.859796	-0.503739	-0.083656	-0.500314	0.863807	-0.059360
19738	-9.776310	-0.797998	-0.553743	-0.016191	0.017978	0.000278	1.121628	0.083022	-0.231493	0.102254	-0.009336	-0.994714	-0.859714	-0.503879	-0.083648	-0.500435	0.863724	-0.059550
19739	-9.707750	-0.805719	-0.616052	-0.014708	0.027036	0.001563	1.123829	0.087858	-0.228216	0.102250	-0.009489	-0.994713	-0.859654	-0.503998	-0.083559	-0.500540	0.863653	-0.059691
19740	-9.739630	-0.771677	-0.590816	-0.011127	0.038768	0.003163	1.127014	0.088221	-0.228493	0.102418	-0.009834	-0.994693	-0.859601	-0.504094	-0.083525	-0.500597	0.863593	-0.060082
19741	-9.685520	-0.792991	-0.550343	-0.000564	0.044231	0.005451	1.129240	0.087796	-0.230891	0.102547	-0.010244	-0.994675	-0.859599	-0.504113	-0.083430	-0.500574	0.863577	-0.060501
19742	-9.710500	-0.763624	-0.617092	0.004744	0.044928	0.006104	1.125811	0.087960	-0.229487	0.102722	-0.010658	-0.994653	-0.859628	-0.504072	-0.083376	-0.500488	0.863596	-0.060941
19743	-9.680790	-0.732130	-0.561712	0.006275	0.042216	0.009796	1.120365	0.084065	-0.225566	0.102764	-0.011015	-0.994645	-0.859681	-0.504004	-0.083239	-0.500388	0.863631	-0.061263
19744	-9.717100	-0.756963	-0.534311	0.005707	0.040679	0.011476	1.127001	0.087196	-0.226948	0.102871	-0.011417	-0.994629	-0.859721	-0.503954	-0.083133	-0.500298	0.863655	-0.061658
19745	-9.768740	-0.742788	-0.548767	0.003800	0.025832	0.008215	1.123035	0.084180	-0.223871	0.102836	-0.011694	-0.994630	-0.859751	-0.503930	-0.082966	-0.500253	0.863666	-0.061876
19746	-9.778510	-0.752007	-0.570909	0.002116	0.021247	0.013262	1.128128	0.077928	-0.225676	0.102830	-0.011937	-0.994627	-0.859774	-0.503910	-0.082840	-0.500214	0.863674	-0.062080
19747	-9.824510	-0.710399	-0.631053	0.008125	0.019214	0.008581	1.128389	0.079039	-0.226340	0.102635	-0.012244	-0.994644	-0.859860	-0.503816	-0.082525	-0.500107	0.863724	-0.062238
19748	-9.837650	-0.679174	-0.641833	0.005043	0.013073	0.006277	1.127724	0.087173	-0.226273	0.102646	-0.012383	-0.994641	-0.859891	-0.503772	-0.082468	-0.500051	0.863748	-0.062359
19749	-9.898480	-0.651811	-0.596682	0.003991	0.009812	0.006966	1.113590	0.090215	-0.226615	0.102450	-0.012547	-0.994659	-0.859953	-0.503707	-0.082222	-0.499985	0.863784	-0.062395
19750	-9.850120	-0.623645	-0.575557	-0.003423	0.006437	0.005989	1.132440	0.078047	-0.218804	0.102429	-0.012628	-0.994660	-0.859942	-0.503735	-0.082161	-0.500008	0.863766	-0.062456
19751	-9.875470	-0.670845	-0.569147	-0.003982	0.008757	0.005976	1.131477	0.082250	-0.216954	0.102325	-0.012821	-0.994668	-0.859921	-0.503803	-0.081969	-0.500066	0.863723	-0.062577
19752	-9.843320	-0.704162	-0.598622	-0.000203	0.012161	0.002940	1.125211	0.090816	-0.217738	0.102359	-0.012937	-0.994663	-0.859923	-0.503804	-0.081940	-0.500055	0.863721	-0.062694
19753	-9.756000	-0.791777	-0.627860	0.001899	0.018679	0.001561	1.126230	0.085823	-0.224923	0.102450	-0.013361	-0.994648	-0.859898	-0.503869	-0.081802	-0.500079	0.863677	-0.063110
19754	-9.740700	-0.830673	-0.587046	0.012525	0.020080	0.002884	1.124028	0.085330	-0.224884	0.102525	-0.013548	-0.994638	-0.859964	-0.503760	-0.081781	-0.499951	0.863737	-0.063299
19755	-9.742640	-0.821759	-0.622163	0.016714	0.017726	0.006911	1.126251	0.090461	-0.223132	0.102459	-0.013725	-0.994643	-0.860057	-0.503623	-0.081646	-0.499805	0.863814	-0.063405
19756	-9.726400	-0.760000	-0.572943	0.024329	0.008937	0.004952	1.126247	0.083592	-0.228091	0.102461	-0.013826	-0.994641	-0.860183	-0.503413	-0.081613	-0.499586	0.863936	-0.063473
19757	-9.701030	-0.711860	-0.580589	0.025442	0.004293	0.004980	1.124487	0.077665	-0.228268	0.102383	-0.013832	-0.994649	-0.860312	-0.503202	-0.081557	-0.499381	0.864058	-0.063419
19758	-9.718660	-0.740509	-0.586597	0.016487	-0.007914	0.005396	1.125298	0.082618	-0.231678	0.102298	-0.013789	-0.994658	-0.860399	-0.503059	-0.081515	-0.499248	0.864142	-0.063326
19759	-9.710910	-0.721432	-0.599784	-0.011254	0.001129	0.001338	1.128899	0.089468	-0.221271	0.101975	-0.013689	-0.994693	-0.860418	-0.503064	-0.081285	-0.499281	0.864141	-0.063078
19760	-9.753430	-0.721360	-0.669585	-0.035435	0.014191	0.002270	1.125418	0.083187	-0.220434	0.102023	-0.013819	-0.994686	-0.860244	-0.503369	-0.081240	-0.499572	0.863961	-0.063244
19761	-9.727970	-0.673037	-0.678528	-0.045090	0.016247	0.002928	1.121606	0.087689	-0.225312	0.102075	-0.014089	-0.994677	-0.859997	-0.503810	-0.081118	-0.499986	0.863699	-0.063543
19762	-9.755250	-0.711777	-0.706674	-0.054119	0.015772	0.000923	1.125938	0.086575	-0.220438	0.102145	-0.014227	-0.994668	-0.859727	-0.504277	-0.081075	-0.500435	0.863424	-0.063741
19763	-9.783910	-0.718313	-0.690850	-0.048817	0.016461	0.001584	1.128966	0.078780	-0.235103	0.102213	-0.014380	-0.994659	-0.859455	-0.504750	-0.081022	-0.500889	0.863146	-0.063951
19764	-9.826190	-0.771051	-0.614612	-0.046658	0.015069	0.000919	1.125544	0.089640	-0.226322	0.102280	-0.014512	-0.994650	-0.859222	-0.505153	-0.080984	-0.501275	0.862908	-0.064136
19765	-9.852900	-0.786300	-0.565322	-0.046668	0.015058	0.000916	1.127614	0.084743	-0.218719	0.102120	-0.014466	-0.994667	-0.859047	-0.505472	-0.080845	-0.501607	0.862722	-0.064046
19766	-9.820090	-0.796111	-0.518444	-0.038209	0.021682	0.001216	1.128134	0.087326	-0.219336	0.102217	-0.014653	-0.994654	-0.858857	-0.505802	-0.080810	-0.501914	0.862525	-0.064286
19767	-9.768810	-0.832689	-0.587074	-0.024357	0.024966	0.001204	1.121285	0.084517	-0.220252	0.102314	-0.015032	-0.994639	-0.858718	-0.506058	-0.080684	-0.502132	0.862369	-0.064685
19768	-9.789630	-0.820699	-0.585613	-0.020652	0.028571	0.000852	1.126763	0.081582	-0.231628	0.102449	-0.015278	-0.994621	-0.858615	-0.506235	-0.080664	-0.502280	0.862260	-0.064982
19769	-9.783620	-0.792963	-0.635109	-0.017439	0.022756	0.002889	1.123656	0.085652	-0.234217	0.102339	-0.015398	-0.994630	-0.858565	-0.506346	-0.080500	-0.502388	0.862193	-0.065039
19770	-9.792770	-0.779271	-0.579974	-0.007852	0.024751	0.003222	1.122961	0.085477	-0.215965	0.102433	-0.015623	-0.994617	-0.858529	-0.506413	-0.080463	-0.502430	0.862150	-0.065286
19771	-9.790140	-0.710917	-0.618486	-0.006656	0.023758	-0.001123	1.127444	0.093068	-0.217486	0.102460	-0.015699	-0.994613	-0.858501	-0.506463	-0.080445	-0.502472	0.862118	-0.065370
19772	-9.791880	-0.702597	-0.654345	-0.001748	0.026376	-0.005816	1.124730	0.086326	-0.219766	0.102640	-0.015890	-0.994592	-0.858486	-0.506479	-0.080502	-0.502461	0.862106	-0.065626
19773	-9.789750	-0.711961	-0.623364	0.001059	0.022479	-0.009141	1.123075	0.086181	-0.224190	0.102935	-0.016084	-0.994558	-0.858433	-0.506545	-0.080654	-0.502491	0.862064	-0.065948
19774	-9.749520	-0.727721	-0.667193	0.007499	0.018550	-0.008445	1.121747	0.083836	-0.216221	0.103100	-0.016194	-0.994539	-0.858462	-0.506482	-0.080746	-0.502408	0.862099	-0.066120
19775	-9.713320	-0.779423	-0.630600	0.004761	0.018396	-0.006106	1.130135	0.085335	-0.222259	0.103165	-0.016332	-0.994530	-0.858466	-0.506476	-0.080734	-0.502387	0.862100	-0.066271
19776	-9.705320	-0.761189	-0.645903	-0.012883	0.019380	-0.006473	1.120400	0.087262	-0.223118	0.103317	-0.016460	-0.994512	-0.858395	-0.506588	-0.080792	-0.502478	0.862031	-0.066468
19777	-9.718260	-0.731159	-0.657545	-0.015136	0.028639	-0.006523	1.123259	0.083247	-0.219562	0.103427	-0.016598	-0.994499	-0.858317	-0.506718	-0.080807	-0.502589	0.861952	-0.066655
19778	-9.708310	-0.721385	-0.640607	-0.018440	0.030797	-0.004198	1.126672	0.084406	-0.217720	0.103617	-0.016835	-0.994475	-0.858219	-0.506877	-0.080840	-0.502716	0.861854	-0.066969
19779	-9.777340	-0.737191	-0.661537	-0.013689	0.026130	-0.000152	1.122455	0.082322	-0.213285	0.103621	-0.017137	-0.994469	-0.858159	-0.507005	-0.080681	-0.502819	0.861773	-0.067242
19780	-9.825130	-0.741186	-0.608708	-0.008779	0.021064	-0.001457	1.121794	0.083550	-0.218399	0.103737	-0.017304	-0.994454	-0.858113	-0.507081	-0.080691	-0.502872	0.861725	-0.067452
19781	-9.837230	-0.819762	-0.594736	-0.004995	0.020628	-0.002786	1.130848	0.082060	-0.221058	0.103749	-0.017601	-0.994448	-0.858076	-0.507166	-0.080545	-0.502933	0.861669	-0.067721
19782	-9.833650	-0.860795	-0.607486	-0.002821	0.019253	-0.003444	1.122528	0.086895	-0.215164	0.103872	-0.017744	-0.994432	-0.858059	-0.507191	-0.080578	-0.502937	0.861651	-0.067908
19783	-9.815970	-0.831900	-0.603012	-0.007253	0.022198	0.000547	1.126207	0.084107	-0.218686	0.103862	-0.017990	-0.994429	-0.858038	-0.507248	-0.080440	-0.502975	0.861612	-0.068120
19784	-9.777290	-0.814813	-0.602813	0.003058	0.021484	-0.004444	1.134500	0.083030	-0.218449	0.104005	-0.018148	-0.994411	-0.858049	-0.507222	-0.080486	-0.502927	0.861624	-0.068325
19785	-9.761410	-0.777414	-0.632029	0.004989	0.028390	-0.000456	1.130079	0.079266	-0.218955	0.103981	-0.018452	-0.994408	-0.858119	-0.507129	-0.080320	-0.502811	0.861673	-0.068566
19786	-9.782240	-0.765634	-0.630300	0.016189	0.023649	0.002609	1.121558	0.086279	-0.215103	0.104073	-0.018665	-0.994395	-0.858204	-0.506988	-0.080303	-0.502647	0.861751	-0.068782
19787	-9.799640	-0.794558	-0.639140	0.022066	0.025878	0.001610	1.127295	0.090658	-0.221831	0.104031	-0.018952	-0.994393	-0.858339	-0.506786	-0.080139	-0.502426	0.861864	-0.068989
19788	-9.833620	-0.752145	-0.646379	0.022064	0.022035	0.003301	1.130434	0.088590	-0.220283	0.104108	-0.019155	-0.994382	-0.858454	-0.506594	-0.080118	-0.502213	0.861972	-0.069184
19789	-9.802850	-0.753635	-0.632462	0.028022	0.020222	0.001320	1.130582	0.088818	-0.211441	0.104207	-0.019167	-0.994371	-0.858596	-0.506338	-0.080219	-0.501951	0.862122	-0.069221
19790	-9.804520	-0.745112	-0.667420	0.028101	0.016178	0.000337	1.133579	0.090367	-0.215821	0.104281	-0.019302	-0.994361	-0.858737	-0.506095	-0.080234	-0.501693	0.862262	-0.069352
19791	-9.804430	-0.745409	-0.668433	0.027217	0.008682	-0.002638	1.129569	0.077624	-0.217271	0.104445	-0.019463	-0.994340	-0.858846	-0.505898	-0.080311	-0.501472	0.862374	-0.069554
19792	-9.796500	-0.727050	-0.682268	0.025688	0.003702	-0.002950	1.124699	0.076396	-0.219361	0.104487	-0.019475	-0.994336	-0.858972	-0.505677	-0.080358	-0.501247	0.862503	-0.069565
19793	-9.744790	-0.740814	-0.670981	0.019240	0.007620	-0.003664	1.129120	0.082417	-0.216460	0.104177	-0.019587	-0.994366	-0.859155	-0.505414	-0.080055	-0.500998	0.862655	-0.069481
19794	-9.763910	-0.738127	-0.634400	0.020198	0.014906	-0.003369	1.121989	0.082661	-0.211633	0.104274	-0.019695	-0.994354	-0.859254	-0.505239	-0.080100	-0.500809	0.862754	-0.069607
19795	-9.734910	-0.731415	-0.653497	0.013669	0.019028	-0.001409	1.123539	0.078673	-0.222151	0.104269	-0.019956	-0.994349	-0.859322	-0.505144	-0.079971	-0.500693	0.862805	-0.069820
19796	-9.740870	-0.759111	-0.608597	0.011008	0.022509	-0.003447	1.136716	0.083957	-0.216596	0.104404	-0.020131	-0.994331	-0.859375	-0.505048	-0.080009	-0.500574	0.862856	-0.070029
19797	-9.719700	-0.771280	-0.614813	0.005693	0.021804	-0.004131	1.120186	0.089027	-0.218460	0.104300	-0.020269	-0.994339	-0.859474	-0.504903	-0.079861	-0.500426	0.862938	-0.070082
19798	-9.780800	-0.744969	-0.571061	0.002472	0.019928	-0.002793	1.128529	0.078055	-0.209682	0.104415	-0.020424	-0.994324	-0.859485	-0.504880	-0.079885	-0.500383	0.862948	-0.070271
19799	-9.761430	-0.748490	-0.610184	0.000469	0.013226	-0.004097	1.126372	0.085093	-0.206993	0.104439	-0.020557	-0.994319	-0.859469	-0.504915	-0.079836	-0.500405	0.862924	-0.070401
19800	-9.798090	-0.798533	-0.657686	-0.006283	0.007345	-0.007767	1.120271	0.085142	-0.207054	0.104534	-0.020578	-0.994308	-0.859431	-0.504969	-0.079903	-0.500451	0.862892	-0.070472
19801	-9.815500	-0.851815	-0.742149	-0.003057	0.001552	-0.005711	1.128235	0.091641	-0.214539	0.104665	-0.020788	-0.994290	-0.859327	-0.505147	-0.079897	-0.500602	0.862783	-0.070735
19802	-9.794430	-0.864346	-0.746313	0.002988	-0.000465	-0.010361	1.126647	0.083605	-0.210452	0.104744	-0.020732	-0.994283	-0.859332	-0.505122	-0.079996	-0.500576	0.862799	-0.070724
19803	-9.776840	-0.812764	-0.662293	0.004597	0.000472	-0.011030	1.129635	0.084485	-0.214475	0.104902	-0.020720	-0.994267	-0.859304	-0.505149	-0.080135	-0.500592	0.862783	-0.070796
19804	-9.782020	-0.740889	-0.607614	0.007252	0.000823	-0.010688	1.137574	0.087156	-0.222892	0.104992	-0.020674	-0.994258	-0.859330	-0.505087	-0.080241	-0.500528	0.862821	-0.070796
19805	-9.775800	-0.691043	-0.577339	0.009334	0.007318	-0.012060	1.123763	0.080327	-0.216383	0.105013	-0.020599	-0.994257	-0.859421	-0.504922	-0.080311	-0.500368	0.862919	-0.070727
19806	-9.833450	-0.706222	-0.543174	-0.000981	0.011877	-0.008782	1.124326	0.083248	-0.219983	0.105141	-0.020657	-0.994243	-0.859408	-0.504931	-0.080391	-0.500363	0.862913	-0.070842
19807	-9.829780	-0.771608	-0.631907	-0.005548	0.000786	-0.011406	1.134360	0.090942	-0.215279	0.105019	-0.020512	-0.994259	-0.859412	-0.504930	-0.080359	-0.500383	0.862917	-0.070655
19808	-9.827900	-0.804811	-0.676232	-0.007246	0.003886	-0.009759	1.131144	0.084894	-0.216421	0.105113	-0.020495	-0.994249	-0.859367	-0.504993	-0.080443	-0.500440	0.862880	-0.070694
19809	-9.779630	-0.802127	-0.731319	0.003719	-0.003188	-0.015696	1.124595	0.092831	-0.213144	0.105213	-0.020366	-0.994241	-0.859388	-0.504932	-0.080599	-0.500383	0.862919	-0.070628
19810	-9.714740	-0.847340	-0.709938	0.005244	-0.002047	-0.013690	1.132536	0.083742	-0.210532	0.105312	-0.020278	-0.994232	-0.859401	-0.504888	-0.080733	-0.500339	0.862947	-0.070598
19811	-9.681440	-0.782010	-0.729861	0.001548	-0.005649	-0.013347	1.130915	0.083717	-0.217922	0.105456	-0.020231	-0.994218	-0.859363	-0.504930	-0.080877	-0.500374	0.862923	-0.070634
19812	-9.723410	-0.759789	-0.721248	-0.000151	-0.002550	-0.011699	1.121439	0.087718	-0.218319	0.105536	-0.020150	-0.994211	-0.859351	-0.504932	-0.080987	-0.500377	0.862924	-0.070605
19813	-9.684870	-0.743467	-0.718459	-0.002320	-0.005008	-0.009349	1.132642	0.085476	-0.217630	0.105476	-0.019950	-0.994222	-0.859350	-0.504926	-0.081036	-0.500392	0.862932	-0.070402
19814	-9.721560	-0.770223	-0.687209	-0.005066	-0.001325	-0.008714	1.124871	0.086698	-0.220090	0.105537	-0.019894	-0.994216	-0.859317	-0.504970	-0.081113	-0.500436	0.862908	-0.070388
19815	-9.752130	-0.769629	-0.702959	0.004030	-0.001054	-0.009350	1.128346	0.081704	-0.207998	0.105489	-0.019735	-0.994225	-0.859364	-0.504883	-0.081158	-0.500365	0.862962	-0.070219
19816	-9.811580	-0.776212	-0.701139	0.001374	-0.001408	-0.009693	1.116807	0.089470	-0.216839	0.105557	-0.019672	-0.994219	-0.859362	-0.504871	-0.081249	-0.500354	0.862970	-0.070198
19817	-9.801940	-0.766946	-0.680546	-0.001663	-0.011359	-0.010311	1.128205	0.085951	-0.213007	0.105556	-0.019584	-0.994221	-0.859310	-0.504955	-0.081286	-0.500444	0.862924	-0.070130
19818	-9.780890	-0.779743	-0.683737	-0.004328	-0.007883	-0.012352	1.129143	0.087051	-0.208697	0.105614	-0.019453	-0.994217	-0.859277	-0.504993	-0.081399	-0.500489	0.862904	-0.070050
19819	-9.767660	-0.811487	-0.673713	-0.005377	-0.007300	-0.013364	1.125710	0.083991	-0.209764	0.105687	-0.019481	-0.994209	-0.859223	-0.505077	-0.081440	-0.500566	0.862854	-0.070119
19820	-9.758000	-0.802455	-0.653051	-0.001674	-0.007530	-0.012010	1.120717	0.086180	-0.219229	0.105744	-0.019356	-0.994205	-0.859204	-0.505093	-0.081552	-0.500587	0.862848	-0.070042
19821	-9.767590	-0.813767	-0.672006	0.004215	-0.012964	-0.009612	1.127507	0.086473	-0.214993	0.105670	-0.019215	-0.994216	-0.859209	-0.505083	-0.081560	-0.500594	0.862857	-0.069882
19822	-9.779000	-0.792776	-0.646859	0.005732	-0.007989	-0.009303	1.127819	0.081397	-0.224864	0.105702	-0.019099	-0.994214	-0.859229	-0.505033	-0.081649	-0.500552	0.862888	-0.069794
19823	-9.765780	-0.824199	-0.636676	0.004124	-0.008927	-0.008633	1.124140	0.090611	-0.215831	0.105518	-0.018893	-0.994238	-0.859303	-0.504915	-0.081603	-0.500464	0.862962	-0.069512
19824	-9.763310	-0.756872	-0.672047	0.004602	-0.007200	-0.007639	1.139956	0.081431	-0.218557	0.105537	-0.018792	-0.994238	-0.859320	-0.504875	-0.081673	-0.500431	0.862988	-0.069431
19825	-9.769350	-0.784876	-0.624541	-0.002966	-0.006330	-0.004992	1.127071	0.081404	-0.223366	0.105431	-0.018732	-0.994250	-0.859349	-0.504836	-0.081615	-0.500404	0.863012	-0.069323
19826	-9.772930	-0.744587	-0.613408	-0.006191	-0.004375	-0.005350	1.131044	0.090484	-0.221638	0.105445	-0.018668	-0.994250	-0.859314	-0.504888	-0.081655	-0.500461	0.862983	-0.069279
19827	-9.803580	-0.743685	-0.628547	-0.005532	-0.010726	-0.006313	1.127386	0.087986	-0.224029	0.105265	-0.018382	-0.994274	-0.859346	-0.504835	-0.081647	-0.500443	0.863020	-0.068938
19828	-9.851720	-0.772166	-0.649187	0.003351	-0.024300	-0.010886	1.128568	0.092142	-0.217433	0.105225	-0.018116	-0.994283	-0.859354	-0.504805	-0.081748	-0.500439	0.863043	-0.068686
19829	-9.813360	-0.779550	-0.721520	0.004006	-0.030656	-0.011850	1.120756	0.089475	-0.219833	0.105152	-0.017640	-0.994300	-0.859377	-0.504736	-0.081929	-0.500414	0.863093	-0.068234
19830	-9.731180	-0.818831	-0.768482	0.000218	-0.030226	-0.010527	1.129738	0.084810	-0.219312	0.105080	-0.017323	-0.994313	-0.859369	-0.504734	-0.082025	-0.500443	0.863101	-0.067924
19831	-9.698760	-0.829873	-0.717180	-0.002159	-0.013105	-0.011309	1.127101	0.084486	-0.223717	0.105026	-0.017084	-0.994323	-0.859356	-0.504744	-0.082098	-0.500476	0.863100	-0.067693
19832	-9.710210	-0.808790	-0.691550	0.003655	-0.018332	-0.006239	1.127819	0.082473	-0.224156	0.104976	-0.016891	-0.994331	-0.859370	-0.504711	-0.082154	-0.500463	0.863123	-0.067498
19833	-9.713870	-0.768639	-0.679333	0.007829	-0.012996	-0.005591	1.123081	0.089413	-0.210380	0.104703	-0.016638	-0.994364	-0.859475	-0.504549	-0.082057	-0.500340	0.863223	-0.067128
19834	-9.754180	-0.754322	-0.635847	0.007368	-0.022396	-0.003191	1.128244	0.085548	-0.216680	0.104604	-0.016424	-0.994378	-0.859511	-0.504483	-0.082084	-0.500299	0.863265	-0.066888
19835	-9.771710	-0.783837	-0.640334	-0.002788	-0.018259	-0.005252	1.125128	0.085651	-0.221652	0.104577	-0.016388	-0.994382	-0.859453	-0.504585	-0.082071	-0.500405	0.863207	-0.066853
19836	-9.742930	-0.777279	-0.656594	-0.009250	-0.010513	-0.007659	1.129282	0.091661	-0.217266	0.104576	-0.016256	-0.994384	-0.859401	-0.504663	-0.082131	-0.500494	0.863163	-0.066746
19837	-9.804730	-0.851993	-0.617706	-0.009743	-0.008410	-0.010352	1.118485	0.082837	-0.219577	0.104597	-0.016111	-0.994384	-0.859345	-0.504744	-0.082215	-0.500585	0.863118	-0.066639
19838	-9.754720	-0.833860	-0.561353	-0.005481	-0.007114	-0.010685	1.122845	0.081628	-0.217375	0.104639	-0.015992	-0.994382	-0.859309	-0.504791	-0.082307	-0.500639	0.863093	-0.066563
19839	-9.798640	-0.802989	-0.585281	-0.008522	-0.017083	-0.011302	1.125362	0.086161	-0.220189	0.104456	-0.015831	-0.994403	-0.859258	-0.504890	-0.082222	-0.500763	0.863038	-0.066342
19840	-9.739120	-0.798554	-0.585694	0.000635	-0.013176	-0.016327	1.122257	0.091154	-0.221886	0.104516	-0.015632	-0.994400	-0.859247	-0.504885	-0.082374	-0.500770	0.863045	-0.066200
19841	-9.800650	-0.820601	-0.692933	-0.002631	-0.022521	-0.008914	1.129207	0.090893	-0.211161	0.104439	-0.015316	-0.994413	-0.859220	-0.504916	-0.082463	-0.500832	0.863032	-0.065893
19842	-9.785160	-0.783940	-0.718048	0.002657	-0.014135	-0.011631	1.129248	0.089545	-0.215638	0.104453	-0.015132	-0.994415	-0.859224	-0.504892	-0.082570	-0.500823	0.863050	-0.065740
19843	-9.802560	-0.814273	-0.723433	0.004731	-0.007628	-0.013005	1.126676	0.088121	-0.226048	0.104616	-0.015190	-0.994397	-0.859198	-0.504919	-0.082679	-0.500834	0.863033	-0.065874
19844	-9.777340	-0.767688	-0.729662	0.003680	-0.007047	-0.014015	1.124098	0.087236	-0.215081	0.104687	-0.015057	-0.994391	-0.859204	-0.504887	-0.082810	-0.500809	0.863054	-0.065792
19845	-9.796430	-0.765914	-0.691291	0.003123	-0.008571	-0.012333	1.123699	0.084995	-0.224122	0.104675	-0.014910	-0.994395	-0.859216	-0.504857	-0.082876	-0.500791	0.863075	-0.065657
19846	-9.744620	-0.780243	-0.679298	0.004629	0.000250	-0.013722	1.130090	0.093529	-0.220796	0.104780	-0.014841	-0.994385	-0.859227	-0.504816	-0.083004	-0.500749	0.863099	-0.065647
19847	-9.732960	-0.780000	-0.625788	0.001007	-0.003574	-0.016050	1.133492	0.087676	-0.223611	0.104842	-0.014667	-0.994381	-0.859233	-0.504782	-0.083147	-0.500726	0.863122	-0.065525
19848	-9.711790	-0.793256	-0.629768	-0.000614	-0.000680	-0.017075	1.130095	0.092194	-0.221547	0.104971	-0.014573	-0.994369	-0.859215	-0.504787	-0.083305	-0.500730	0.863121	-0.065509
19849	-9.717510	-0.822107	-0.582783	-0.003899	-0.002352	-0.013053	1.126390	0.093119	-0.217014	0.105012	-0.014461	-0.994366	-0.859224	-0.504756	-0.083400	-0.500706	0.863141	-0.065431
19850	-9.732900	-0.860990	-0.555517	-0.002280	-0.005248	-0.012029	1.128948	0.097677	-0.223036	0.105075	-0.014353	-0.994361	-0.859203	-0.504774	-0.083506	-0.500729	0.863132	-0.065371
19851	-9.765280	-0.828629	-0.526691	-0.010251	-0.006329	-0.013043	1.129213	0.097722	-0.224501	0.105288	-0.014185	-0.994341	-0.859108	-0.504892	-0.083766	-0.500847	0.863066	-0.065345
19852	-9.755720	-0.843150	-0.583753	-0.012427	-0.004958	-0.012385	1.129859	0.094466	-0.219583	0.105356	-0.014077	-0.994335	-0.859035	-0.504999	-0.083871	-0.500958	0.863005	-0.065297
19853	-9.770900	-0.805137	-0.626081	-0.008238	-0.003446	-0.010042	1.128845	0.088648	-0.220735	0.105534	-0.013907	-0.994318	-0.858974	-0.505064	-0.084105	-0.501025	0.862970	-0.065247
19854	-9.778580	-0.824901	-0.612137	-0.001785	-0.007353	-0.009339	1.122736	0.088817	-0.220072	0.105566	-0.013793	-0.994317	-0.858957	-0.505079	-0.084189	-0.501047	0.862963	-0.065166
19855	-9.822590	-0.793967	-0.636321	0.004099	-0.008945	-0.008650	1.120552	0.090888	-0.219635	0.105513	-0.013695	-0.994324	-0.858979	-0.505041	-0.084195	-0.501021	0.862987	-0.065052
19856	-9.830510	-0.837394	-0.698780	0.008069	-0.021308	-0.010248	1.125498	0.083019	-0.210568	0.105482	-0.013456	-0.994330	-0.859011	-0.504971	-0.084293	-0.500973	0.863032	-0.064824
19857	-9.826940	-0.878965	-0.706832	0.004888	-0.030867	-0.005511	1.123413	0.087658	-0.216658	0.105312	-0.013342	-0.994350	-0.859012	-0.504984	-0.084203	-0.501007	0.863026	-0.064642
19858	-9.773250	-0.824540	-0.728513	0.008164	-0.029200	-0.009536	1.126471	0.091218	-0.224753	0.105235	-0.013040	-0.994362	-0.859045	-0.504912	-0.084293	-0.500966	0.863072	-0.064337
19859	-9.760020	-0.856028	-0.716500	0.011854	-0.025586	-0.009888	1.124703	0.090920	-0.220275	0.105137	-0.012795	-0.994375	-0.859096	-0.504819	-0.084338	-0.500900	0.863131	-0.064067
19860	-9.800010	-0.818713	-0.594365	0.016697	-0.030440	-0.008516	1.125934	0.091340	-0.221046	0.105045	-0.012488	-0.994389	-0.859173	-0.504673	-0.084423	-0.500787	0.863220	-0.063743
19861	-9.807840	-0.838324	-0.577619	0.015586	-0.033491	-0.005152	1.126929	0.088355	-0.225042	0.104920	-0.012203	-0.994406	-0.859235	-0.504560	-0.084466	-0.500707	0.863290	-0.063424
19862	-9.811650	-0.798284	-0.563664	0.017738	-0.031033	-0.007511	1.121007	0.089792	-0.219131	0.104816	-0.011897	-0.994420	-0.859318	-0.504405	-0.084541	-0.500585	0.863385	-0.063093
19863	-9.873260	-0.796528	-0.591506	0.023697	-0.036685	-0.007811	1.130280	0.090322	-0.218594	0.104633	-0.011566	-0.994444	-0.859431	-0.504209	-0.084563	-0.500430	0.863504	-0.062697
19864	-9.833350	-0.812098	-0.629374	0.038106	-0.039523	-0.006117	1.126958	0.088574	-0.228232	0.104474	-0.011193	-0.994465	-0.859618	-0.503878	-0.084637	-0.500142	0.863702	-0.062264
19865	-9.831890	-0.845266	-0.669273	0.041302	-0.037653	-0.007471	1.129115	0.087992	-0.225644	0.104280	-0.010876	-0.994488	-0.859845	-0.503487	-0.084656	-0.499791	0.863934	-0.061855
19866	-9.768930	-0.881177	-0.677942	0.053029	-0.037022	-0.007815	1.125812	0.094794	-0.230562	0.104149	-0.010516	-0.994506	-0.860105	-0.503027	-0.084755	-0.499373	0.864206	-0.061435
19867	-9.751320	-0.829180	-0.589928	0.059389	-0.040743	-0.004450	1.127622	0.091688	-0.221460	0.103932	-0.010056	-0.994534	-0.860421	-0.502473	-0.084836	-0.498873	0.864534	-0.060875
19868	-9.719360	-0.786854	-0.683505	0.063575	-0.043091	-0.000424	1.122238	0.087531	-0.223884	0.103707	-0.009680	-0.994561	-0.860740	-0.501921	-0.084868	-0.498369	0.864859	-0.060385
19869	-9.754130	-0.744967	-0.683684	0.052821	-0.047959	0.005306	1.125645	0.093338	-0.219733	0.103406	-0.009382	-0.994595	-0.861002	-0.501485	-0.084786	-0.497979	0.865115	-0.059935
19870	-9.790780	-0.770882	-0.647592	0.043696	-0.040575	0.002580	1.131566	0.087026	-0.229626	0.103169	-0.009044	-0.994623	-0.861224	-0.501105	-0.084775	-0.497643	0.865339	-0.059487
19871	-9.834670	-0.715159	-0.591179	0.033965	-0.034485	0.004220	1.134493	0.089989	-0.228041	0.102952	-0.008851	-0.994647	-0.861410	-0.500798	-0.084704	-0.497367	0.865519	-0.059183
19872	-9.813880	-0.726600	-0.591551	0.027123	-0.040211	0.003267	1.125175	0.088125	-0.226649	0.102711	-0.008520	-0.994675	-0.861551	-0.500560	-0.084677	-0.497173	0.865660	-0.058753
19873	-9.847110	-0.716895	-0.636020	0.014486	-0.048392	0.000670	1.123169	0.084726	-0.225205	0.102409	-0.008162	-0.994709	-0.861658	-0.500388	-0.084605	-0.497050	0.865763	-0.058277
19874	-9.787280	-0.687157	-0.555904	0.002395	-0.055056	-0.003612	1.126071	0.083956	-0.224069	0.102153	-0.007668	-0.994739	-0.861669	-0.500365	-0.084630	-0.497084	0.865781	-0.057721
19875	-9.762860	-0.740001	-0.565651	-0.000356	-0.047520	-0.004669	1.120512	0.082740	-0.230114	0.101829	-0.007404	-0.994774	-0.861688	-0.500357	-0.084482	-0.497117	0.865787	-0.057331
19876	-9.715610	-0.736658	-0.616766	0.001786	-0.045069	-0.007041	1.118628	0.091664	-0.230391	0.101652	-0.006980	-0.994796	-0.861692	-0.500340	-0.084540	-0.497146	0.865801	-0.056875
19877	-9.740040	-0.761309	-0.527473	-0.002969	-0.048119	-0.007677	1.126008	0.092243	-0.235062	0.101386	-0.006509	-0.994826	-0.861668	-0.500381	-0.084542	-0.497242	0.865781	-0.056340
19878	-9.765210	-0.809996	-0.515473	-0.000886	-0.045447	-0.007371	1.122155	0.096490	-0.237168	0.101209	-0.006080	-0.994847	-0.861659	-0.500386	-0.084601	-0.497293	0.865781	-0.055882
19879	-9.760890	-0.827540	-0.444242	-0.001947	-0.044875	-0.008379	1.119385	0.090290	-0.234586	0.101090	-0.005469	-0.994862	-0.861630	-0.500402	-0.084801	-0.497368	0.865776	-0.055297
19880	-9.713620	-0.824719	-0.495731	-0.003456	-0.042418	-0.014758	1.120788	0.087852	-0.231244	0.100992	-0.005028	-0.994875	-0.861601	-0.500431	-0.084934	-0.497439	0.865762	-0.054871
19881	-9.713720	-0.825856	-0.491904	0.000612	-0.036617	-0.008787	1.121539	0.083563	-0.235795	0.100824	-0.004630	-0.994894	-0.861587	-0.500444	-0.084985	-0.497495	0.865756	-0.054446
19882	-9.746930	-0.817602	-0.537310	-0.007203	-0.034515	-0.019492	1.123273	0.088434	-0.234704	0.100806	-0.004234	-0.994897	-0.861535	-0.500505	-0.085163	-0.497591	0.865723	-0.054102
19883	-9.755820	-0.805989	-0.476667	-0.010931	-0.030451	-0.022521	1.122561	0.085284	-0.238179	0.100683	-0.003840	-0.994911	-0.861497	-0.500555	-0.085250	-0.497681	0.865696	-0.053706
19884	-9.740690	-0.770661	-0.501332	-0.022131	-0.025724	-0.025523	1.120520	0.088115	-0.228946	0.100760	-0.003490	-0.994905	-0.861364	-0.500745	-0.085479	-0.497895	0.865588	-0.053461
19885	-9.770500	-0.747948	-0.437120	-0.024246	-0.024570	-0.027533	1.124400	0.092987	-0.243355	0.100744	-0.003175	-0.994907	-0.861237	-0.500940	-0.085611	-0.498117	0.865476	-0.053201
19886	-9.745690	-0.802911	-0.450168	-0.025936	-0.017600	-0.027574	1.122733	0.091333	-0.227321	0.100878	-0.002884	-0.994895	-0.861083	-0.501163	-0.085857	-0.498357	0.865348	-0.053040
19887	-9.703500	-0.828400	-0.457234	-0.027582	-0.022181	-0.022514	1.114549	0.088930	-0.238138	0.100938	-0.002545	-0.994889	-0.860926	-0.501398	-0.086064	-0.498617	0.865213	-0.052801
19888	-9.737660	-0.844895	-0.581598	-0.018528	-0.018050	-0.024929	1.125525	0.087976	-0.237350	0.101047	-0.002264	-0.994879	-0.860811	-0.501556	-0.086288	-0.498793	0.865122	-0.052629
19889	-9.747440	-0.857629	-0.599245	-0.008814	-0.028017	-0.024914	1.125464	0.085044	-0.233941	0.100974	-0.001837	-0.994887	-0.860770	-0.501602	-0.086435	-0.498879	0.865097	-0.052230
19890	-9.709020	-0.842285	-0.594661	-0.011461	-0.032240	-0.023538	1.127384	0.089556	-0.228353	0.100999	-0.001440	-0.994886	-0.860692	-0.501699	-0.086650	-0.499008	0.865041	-0.051910
19891	-9.682840	-0.828691	-0.643586	-0.009504	-0.021408	-0.021269	1.118867	0.085587	-0.232790	0.100956	-0.001332	-0.994890	-0.860658	-0.501754	-0.086663	-0.499075	0.865009	-0.051802
19892	-9.690270	-0.849347	-0.628401	-0.013402	-0.012828	-0.017950	1.126516	0.093461	-0.234278	0.101029	-0.001132	-0.994883	-0.860576	-0.501868	-0.086820	-0.499201	0.864944	-0.051677
19893	-9.717400	-0.890324	-0.653463	-0.006653	-0.006637	-0.011655	1.123838	0.095042	-0.233776	0.101011	-0.001106	-0.994885	-0.860544	-0.501923	-0.086813	-0.499260	0.864912	-0.051651
19894	-9.722410	-0.918729	-0.605794	-0.001835	-0.007654	-0.012009	1.125536	0.093315	-0.233744	0.101058	-0.000981	-0.994880	-0.860527	-0.501936	-0.086916	-0.499281	0.864904	-0.051569
19895	-9.740980	-0.916657	-0.567777	0.008100	0.004284	-0.008779	1.119069	0.096171	-0.241852	0.101178	-0.001030	-0.994868	-0.860547	-0.501887	-0.086998	-0.499222	0.864932	-0.051666
19896	-9.721170	-0.896486	-0.528674	0.003183	0.005743	-0.003066	1.119494	0.092664	-0.238639	0.101216	-0.001065	-0.994864	-0.860563	-0.501857	-0.087015	-0.499187	0.864950	-0.051713
19897	-9.703780	-0.867518	-0.523376	0.005211	0.012510	-0.001775	1.110232	0.098990	-0.236184	0.101260	-0.001025	-0.994859	-0.860585	-0.501809	-0.087076	-0.499140	0.864978	-0.051696
19898	-9.787900	-0.821511	-0.506858	0.010524	0.013240	-0.001137	1.119007	0.096144	-0.236424	0.101319	-0.001135	-0.994853	-0.860639	-0.501715	-0.087078	-0.499034	0.865032	-0.051810
19899	-9.759320	-0.814281	-0.526061	0.017950	0.012811	0.001509	1.121886	0.088405	-0.236786	0.101457	-0.001139	-0.994839	-0.860653	-0.501670	-0.087198	-0.498981	0.865059	-0.051878
19900	-9.819720	-0.844386	-0.601604	0.027090	0.009028	-0.000190	1.120712	0.093754	-0.237307	0.101487	-0.001216	-0.994836	-0.860791	-0.501432	-0.087200	-0.498737	0.865196	-0.051936
19901	-9.821060	-0.812085	-0.557814	0.042071	0.000017	0.003141	1.124544	0.093821	-0.231359	0.101373	-0.001214	-0.994848	-0.861022	-0.501050	-0.087125	-0.498362	0.865418	-0.051838
19902	-9.869280	-0.840295	-0.579265	0.049499	0.007055	-0.000294	1.118787	0.092083	-0.240547	0.101394	-0.001273	-0.994846	-0.861271	-0.500618	-0.087139	-0.497927	0.865667	-0.051856
19903	-9.848540	-0.896058	-0.469986	0.046291	0.005157	0.001072	1.124816	0.091332	-0.234949	0.101388	-0.001314	-0.994846	-0.861499	-0.500227	-0.087137	-0.497535	0.865893	-0.051848
19904	-9.860790	-0.897925	-0.522882	0.048923	-0.001964	0.007472	1.124847	0.086896	-0.240251	0.101296	-0.001333	-0.994855	-0.861753	-0.499800	-0.087074	-0.497113	0.866140	-0.051777
19905	-9.864610	-0.856378	-0.511807	0.048814	-0.001525	0.012827	1.129245	0.091870	-0.237961	0.101053	-0.001394	-0.994880	-0.862057	-0.499313	-0.086862	-0.496635	0.866421	-0.051659
19906	-9.833830	-0.856488	-0.495871	0.046150	-0.001898	0.012506	1.126606	0.095042	-0.240181	0.100918	-0.001440	-0.994894	-0.862302	-0.498910	-0.086747	-0.496237	0.866653	-0.051591
19907	-9.856340	-0.811388	-0.446905	0.045103	-0.005178	0.013204	1.128489	0.096373	-0.234201	0.100756	-0.001412	-0.994910	-0.862571	-0.498461	-0.086646	-0.495801	0.866911	-0.051441
19908	-9.789550	-0.785654	-0.462187	0.031949	-0.011292	0.007959	1.125785	0.091203	-0.236228	0.100614	-0.001353	-0.994925	-0.862741	-0.498181	-0.086569	-0.495535	0.867072	-0.051291
19909	-9.721420	-0.792739	-0.521270	0.014910	-0.008803	0.006020	1.129172	0.088565	-0.235582	0.100553	-0.001340	-0.994931	-0.862823	-0.498045	-0.086531	-0.495404	0.867150	-0.051236
19910	-9.685490	-0.766380	-0.552242	0.006936	-0.006036	0.003361	1.120131	0.092224	-0.233001	0.100477	-0.001304	-0.994939	-0.862864	-0.497982	-0.086486	-0.495348	0.867187	-0.051160
19911	-9.733810	-0.794186	-0.572821	0.005897	-0.009305	0.004063	1.120349	0.087679	-0.233846	0.100370	-0.001317	-0.994949	-0.862905	-0.497927	-0.086390	-0.495299	0.867218	-0.051113
19912	-9.729160	-0.810411	-0.504322	0.011908	-0.022916	0.004474	1.128619	0.086890	-0.232168	0.100200	-0.001140	-0.994967	-0.862972	-0.497821	-0.086337	-0.495217	0.867279	-0.050866
19913	-9.765320	-0.835795	-0.470293	0.015002	-0.020584	0.008458	1.118644	0.091863	-0.232747	0.099947	-0.001139	-0.994992	-0.863077	-0.497675	-0.086127	-0.495085	0.867363	-0.050725
19914	-9.753050	-0.889581	-0.536164	0.020798	-0.018120	0.010078	1.125041	0.091957	-0.237141	0.099753	-0.001033	-0.995012	-0.863193	-0.497492	-0.086022	-0.494921	0.867468	-0.050518
19915	-9.768160	-0.926224	-0.507118	0.019118	-0.011136	0.010029	1.117933	0.084261	-0.239852	0.099636	-0.001019	-0.995023	-0.863273	-0.497367	-0.085934	-0.494805	0.867539	-0.050436
19916	-9.764500	-0.865745	-0.509334	0.021209	-0.008451	0.010328	1.124528	0.094331	-0.234554	0.099488	-0.000998	-0.995038	-0.863392	-0.497180	-0.085827	-0.494628	0.867647	-0.050325
19917	-9.765900	-0.832266	-0.464538	0.023857	-0.008095	0.010643	1.118659	0.087730	-0.238146	0.099313	-0.000988	-0.995056	-0.863522	-0.496977	-0.085692	-0.494436	0.867763	-0.050209
19918	-9.767280	-0.798787	-0.419627	0.016459	-0.011503	0.009712	1.124055	0.084643	-0.242351	0.099155	-0.000937	-0.995072	-0.863616	-0.496832	-0.085588	-0.494303	0.867847	-0.050072
19919	-9.856360	-0.735042	-0.467331	0.004875	-0.020284	0.008185	1.114481	0.093664	-0.233386	0.098854	-0.000774	-0.995102	-0.863687	-0.496738	-0.085412	-0.494239	0.867900	-0.049773
19920	-9.901030	-0.702846	-0.489213	-0.005039	-0.036057	0.006708	1.125788	0.089339	-0.242770	0.098599	-0.000495	-0.995127	-0.863672	-0.496779	-0.085327	-0.494316	0.867877	-0.049410
19921	-9.869110	-0.735855	-0.514168	-0.005045	-0.036063	0.006706	1.121353	0.087692	-0.241119	0.098384	-0.000188	-0.995148	-0.863626	-0.496866	-0.085288	-0.494440	0.867827	-0.049046
19922	-9.781570	-0.822842	-0.538874	0.000880	-0.030436	-0.001424	1.119352	0.088295	-0.237278	0.098228	0.000083	-0.995164	-0.863632	-0.496856	-0.085287	-0.494460	0.867833	-0.048733
19923	-9.687680	-0.858989	-0.534385	0.001847	-0.019236	-0.002866	1.127189	0.084170	-0.241783	0.098099	0.000263	-0.995177	-0.863643	-0.496841	-0.085265	-0.494467	0.867842	-0.048513
19924	-9.645710	-0.882362	-0.541454	-0.001409	-0.017036	-0.000517	1.126649	0.088568	-0.235258	0.098001	0.000413	-0.995186	-0.863639	-0.496850	-0.085253	-0.494493	0.867836	-0.048335
19925	-9.654440	-0.868486	-0.482216	-0.001954	-0.018559	0.001175	1.123244	0.087069	-0.237555	0.097813	0.000481	-0.995205	-0.863677	-0.496805	-0.085126	-0.494464	0.867862	-0.048179
19926	-9.644590	-0.857818	-0.461305	-0.001030	-0.007125	0.002412	1.119207	0.090229	-0.245201	0.097739	0.000530	-0.995212	-0.863678	-0.496811	-0.085085	-0.494477	0.867859	-0.048100
19927	-9.670420	-0.772696	-0.402501	-0.005860	0.001616	-0.000642	1.120557	0.094056	-0.233646	0.097702	0.000547	-0.995216	-0.863658	-0.496850	-0.085060	-0.494520	0.867836	-0.048070
19928	-9.745850	-0.740098	-0.443145	-0.020349	0.012650	-0.000295	1.120617	0.094904	-0.237961	0.097748	0.000439	-0.995211	-0.863560	-0.497023	-0.085037	-0.494681	0.867737	-0.048204
19929	-9.822610	-0.775407	-0.447166	-0.025539	0.003768	-0.002866	1.119405	0.087039	-0.243034	0.097916	0.000390	-0.995195	-0.863360	-0.497354	-0.085140	-0.494997	0.867547	-0.048362
19930	-9.804020	-0.778667	-0.485930	-0.037914	0.009778	0.001191	1.122196	0.095327	-0.246890	0.097937	0.000298	-0.995193	-0.863176	-0.497680	-0.085094	-0.495313	0.867361	-0.048483
19931	-9.831260	-0.818360	-0.512987	-0.036786	0.012589	-0.004872	1.122632	0.092494	-0.244021	0.098004	0.000349	-0.995186	-0.862990	-0.497992	-0.085160	-0.495624	0.867182	-0.048504
19932	-9.816330	-0.824850	-0.427660	-0.036176	0.006171	-0.005833	1.125828	0.093286	-0.245081	0.098067	0.000325	-0.995180	-0.862808	-0.498303	-0.085186	-0.495928	0.867003	-0.048587
19933	-9.826170	-0.835703	-0.448285	-0.030874	0.006886	-0.005205	1.116958	0.094110	-0.237897	0.098140	0.000411	-0.995173	-0.862655	-0.498551	-0.085278	-0.496180	0.866860	-0.048573
19934	-9.809980	-0.831012	-0.520604	-0.031435	0.009211	-0.005220	1.119374	0.094965	-0.235031	0.098213	0.000359	-0.995165	-0.862497	-0.498821	-0.085300	-0.496440	0.866705	-0.048682
19935	-9.780220	-0.856605	-0.583614	-0.032482	0.005934	-0.004521	1.123303	0.089822	-0.239686	0.098378	0.000331	-0.995149	-0.862266	-0.499202	-0.085408	-0.496809	0.866485	-0.048825
19936	-9.760310	-0.835876	-0.545258	-0.041613	0.009729	-0.002815	1.124193	0.087673	-0.233706	0.098434	0.000262	-0.995144	-0.862059	-0.499560	-0.085401	-0.497156	0.866279	-0.048947
19937	-9.760230	-0.836061	-0.546493	-0.028795	0.009557	-0.004908	1.119306	0.085375	-0.234423	0.098483	0.000123	-0.995139	-0.861928	-0.499793	-0.085362	-0.497374	0.866145	-0.049115
19938	-9.758890	-0.812342	-0.470530	-0.022446	0.013550	-0.004976	1.127164	0.089302	-0.235625	0.098576	0.000031	-0.995129	-0.861815	-0.499985	-0.085386	-0.497552	0.866034	-0.049260
19939	-9.781180	-0.869164	-0.430930	-0.022947	0.011799	-0.005967	1.125237	0.082296	-0.241561	0.098626	-0.000161	-0.995125	-0.861718	-0.500162	-0.085324	-0.497710	0.865932	-0.049468
19940	-9.761260	-0.848835	-0.392916	-0.028820	0.013399	-0.006613	1.121162	0.092966	-0.241133	0.098733	-0.000244	-0.995114	-0.861571	-0.500409	-0.085360	-0.497943	0.865789	-0.049617
19941	-9.803220	-0.826145	-0.385622	-0.032584	0.013835	-0.005254	1.122610	0.088062	-0.242398	0.098733	-0.000313	-0.995114	-0.861446	-0.500632	-0.085313	-0.498159	0.865660	-0.049698
19942	-9.798080	-0.799436	-0.434413	-0.030444	0.016299	-0.007630	1.117900	0.091708	-0.234084	0.098862	-0.000416	-0.995101	-0.861290	-0.500892	-0.085359	-0.498403	0.865510	-0.049877
19943	-9.797930	-0.800210	-0.436289	-0.026144	0.017379	-0.010678	1.118176	0.090540	-0.236865	0.098995	-0.000507	-0.995088	-0.861148	-0.501127	-0.085415	-0.498622	0.865374	-0.050046
19944	-9.754420	-0.856792	-0.490901	-0.008496	0.016206	-0.013118	1.120103	0.093597	-0.232327	0.099171	-0.000582	-0.995070	-0.861096	-0.501197	-0.085526	-0.498677	0.865333	-0.050205
19945	-9.733210	-0.869351	-0.496951	-0.001120	0.015994	-0.007798	1.127096	0.085228	-0.229830	0.099340	-0.000717	-0.995053	-0.861048	-0.501268	-0.085600	-0.498727	0.865292	-0.050414
19946	-9.708350	-0.922178	-0.513531	0.001439	0.016802	-0.002121	1.129608	0.094572	-0.229639	0.099424	-0.000852	-0.995045	-0.861056	-0.501253	-0.085607	-0.498696	0.865300	-0.050571
19947	-9.757830	-0.917802	-0.492572	0.009871	0.016011	0.004204	1.124205	0.086648	-0.231799	0.099475	-0.001217	-0.995039	-0.861131	-0.501147	-0.085475	-0.498557	0.865361	-0.050899
19948	-9.790010	-0.883866	-0.465284	0.011486	0.013101	0.005218	1.118672	0.092646	-0.234937	0.099478	-0.001357	-0.995039	-0.861196	-0.501045	-0.085413	-0.498443	0.865420	-0.051012
19949	-9.782540	-0.864481	-0.479873	0.007245	0.007939	0.007283	1.122186	0.095416	-0.241219	0.099430	-0.001539	-0.995043	-0.861238	-0.500995	-0.085285	-0.498381	0.865449	-0.051139
19950	-9.760130	-0.807328	-0.521583	0.002427	0.008958	0.007637	1.127647	0.094572	-0.229219	0.099392	-0.001656	-0.995047	-0.861260	-0.500971	-0.085195	-0.498349	0.865462	-0.051219
19951	-9.750250	-0.796406	-0.502855	0.002460	0.012587	0.003258	1.124400	0.092707	-0.244289	0.099494	-0.001783	-0.995037	-0.861243	-0.500998	-0.085218	-0.498359	0.865447	-0.051382
19952	-9.772560	-0.752261	-0.455537	-0.001187	0.008729	0.000956	1.126052	0.097185	-0.236770	0.099512	-0.001865	-0.995035	-0.861241	-0.501005	-0.085193	-0.498359	0.865442	-0.051462
19953	-9.753890	-0.755246	-0.493903	-0.003266	0.002186	0.002348	1.116582	0.082145	-0.230329	0.099523	-0.001788	-0.995034	-0.861212	-0.501048	-0.085238	-0.498407	0.865418	-0.051406
19954	-9.750210	-0.795796	-0.504555	-0.005362	-0.000505	0.002041	1.126954	0.097810	-0.230451	0.099486	-0.001795	-0.995037	-0.861190	-0.501092	-0.085200	-0.498452	0.865392	-0.051397
19955	-9.786260	-0.821511	-0.472745	-0.007507	-0.002974	0.004413	1.121758	0.086561	-0.231895	0.099440	-0.001912	-0.995042	-0.861147	-0.501183	-0.085096	-0.498535	0.865339	-0.051484
19956	-9.853230	-0.845792	-0.456188	-0.004901	-0.002388	0.007411	1.124831	0.090907	-0.241117	0.099348	-0.001930	-0.995051	-0.861133	-0.501223	-0.085005	-0.498578	0.865316	-0.051458
19957	-9.861870	-0.887857	-0.519792	0.003612	0.000227	0.006681	1.127368	0.086514	-0.231854	0.099226	-0.001981	-0.995063	-0.861183	-0.501159	-0.084877	-0.498516	0.865353	-0.051434
19958	-9.821170	-0.877857	-0.484576	0.006779	-0.001516	0.009691	1.122751	0.096758	-0.227694	0.099118	-0.002018	-0.995074	-0.861229	-0.501097	-0.084769	-0.498458	0.865389	-0.051406
19959	-9.825040	-0.936716	-0.481466	0.017437	0.003566	0.006588	1.125092	0.091656	-0.242742	0.099129	-0.002213	-0.995072	-0.861307	-0.500977	-0.084689	-0.498321	0.865458	-0.051567
19960	-9.769330	-0.889357	-0.473750	0.016941	0.001818	0.005596	1.117265	0.091603	-0.241846	0.099073	-0.002259	-0.995078	-0.861400	-0.500828	-0.084627	-0.498171	0.865544	-0.051564
19961	-9.751990	-0.859790	-0.467898	0.021180	0.006974	0.003530	1.119879	0.091663	-0.235914	0.099032	-0.002192	-0.995082	-0.861499	-0.500655	-0.084635	-0.498007	0.865644	-0.051469
19962	-9.771750	-0.880337	-0.507399	0.019163	-0.003644	0.003945	1.124533	0.093843	-0.235929	0.098964	-0.002181	-0.995089	-0.861602	-0.500487	-0.084591	-0.497844	0.865742	-0.051409
19963	-9.734720	-0.829865	-0.460995	0.013320	-0.009745	0.006696	1.120340	0.088707	-0.236005	0.098890	-0.002107	-0.995096	-0.861643	-0.500419	-0.084568	-0.497787	0.865781	-0.051302
19964	-9.743250	-0.771528	-0.516460	0.013204	-0.005449	0.010353	1.118678	0.094562	-0.236617	0.098757	-0.002113	-0.995109	-0.861722	-0.500302	-0.084457	-0.497677	0.865848	-0.051229
19965	-9.750850	-0.789411	-0.502331	0.016898	-0.001819	0.009973	1.118132	0.092281	-0.233607	0.098676	-0.002113	-0.995117	-0.861779	-0.500214	-0.084392	-0.497593	0.865899	-0.051180
19966	-9.760780	-0.799153	-0.522060	0.016374	0.004136	0.005579	1.124767	0.092473	-0.237023	0.098633	-0.002177	-0.995122	-0.861869	-0.500070	-0.084331	-0.497447	0.865982	-0.051200
19967	-9.772000	-0.776637	-0.497505	0.008005	-0.010472	0.006061	1.125429	0.083607	-0.237012	0.098569	-0.002107	-0.995128	-0.861877	-0.500059	-0.084311	-0.497445	0.865989	-0.051106
19968	-9.759790	-0.774265	-0.443772	0.001055	-0.000581	0.001003	1.117722	0.099059	-0.236317	0.098541	-0.002108	-0.995131	-0.861886	-0.500047	-0.084288	-0.497435	0.865995	-0.051092
19969	-9.746280	-0.804255	-0.434773	-0.002324	0.005907	0.007006	1.125379	0.087168	-0.230875	0.098522	-0.002168	-0.995132	-0.861856	-0.500109	-0.084238	-0.497492	0.865960	-0.051141
19970	-9.746300	-0.803721	-0.435172	0.003100	0.002330	0.003987	1.122875	0.092143	-0.242954	0.098484	-0.002210	-0.995136	-0.861878	-0.500079	-0.084186	-0.497461	0.865977	-0.051154
19971	-9.768830	-0.859653	-0.394580	0.005690	0.006765	0.005282	1.122847	0.094366	-0.239333	0.098451	-0.002292	-0.995139	-0.861916	-0.500025	-0.084119	-0.497402	0.866008	-0.051203
19972	-9.763700	-0.832154	-0.442313	0.012650	0.008204	0.002554	1.122291	0.084412	-0.239917	0.098454	-0.002376	-0.995139	-0.861984	-0.499913	-0.084087	-0.497283	0.866072	-0.051267
19973	-9.783430	-0.852881	-0.482462	0.016408	0.007759	0.001197	1.123666	0.082580	-0.233485	0.098438	-0.002383	-0.995140	-0.862065	-0.499776	-0.084078	-0.497147	0.866152	-0.051251
19974	-9.821820	-0.870300	-0.485019	0.020545	0.013356	0.004484	1.123970	0.085566	-0.236622	0.098450	-0.002522	-0.995139	-0.862174	-0.499595	-0.084030	-0.496955	0.866255	-0.051360
19975	-9.834040	-0.872026	-0.539092	0.026968	0.009416	0.005148	1.119342	0.084656	-0.238034	0.098348	-0.002700	-0.995148	-0.862367	-0.499288	-0.083871	-0.496639	0.866432	-0.051433
19976	-9.834020	-0.871900	-0.539598	0.023374	0.005337	0.000172	1.119336	0.083922	-0.237932	0.098358	-0.002748	-0.995147	-0.862486	-0.499083	-0.083867	-0.496431	0.866550	-0.051459
19977	-9.846310	-0.873761	-0.592155	0.017076	-0.014052	0.007052	1.118307	0.089423	-0.230591	0.098113	-0.002642	-0.995172	-0.862605	-0.498902	-0.083718	-0.496272	0.866654	-0.051228
19978	-9.822860	-0.792647	-0.554079	0.007033	-0.021668	0.007499	1.116875	0.089781	-0.233628	0.097924	-0.002493	-0.995191	-0.862650	-0.498839	-0.083633	-0.496231	0.866691	-0.050999
19979	-9.777100	-0.755527	-0.564291	-0.006362	-0.015314	0.007857	1.124428	0.087982	-0.233800	0.097817	-0.002440	-0.995201	-0.862581	-0.498972	-0.083559	-0.496373	0.866615	-0.050913
19980	-9.756190	-0.766330	-0.567810	-0.009154	-0.003673	0.007784	1.128613	0.086370	-0.237981	0.097716	-0.002448	-0.995211	-0.862546	-0.499048	-0.083462	-0.496454	0.866571	-0.050877
19981	-9.757510	-0.733150	-0.523552	-0.003239	-0.005509	0.005755	1.122622	0.093853	-0.243057	0.097604	-0.002475	-0.995222	-0.862565	-0.499033	-0.083353	-0.496442	0.866579	-0.050843
19982	-9.719380	-0.815724	-0.528923	0.011160	0.002957	-0.000420	1.120842	0.088847	-0.240154	0.097607	-0.002500	-0.995222	-0.862623	-0.498934	-0.083349	-0.496342	0.866636	-0.050856
19983	-9.703480	-0.854489	-0.486309	0.024983	0.002419	0.001182	1.125388	0.088102	-0.232852	0.097611	-0.002403	-0.995222	-0.862712	-0.498769	-0.083410	-0.496185	0.866732	-0.050758
19984	-9.695090	-0.911980	-0.430285	0.027559	0.010700	0.000768	1.123689	0.090961	-0.231796	0.097641	-0.002500	-0.995219	-0.862852	-0.498528	-0.083403	-0.495936	0.866870	-0.050834
19985	-9.690320	-0.928490	-0.364235	0.032809	0.011636	0.004080	1.122562	0.095417	-0.236880	0.097705	-0.002701	-0.995212	-0.863010	-0.498259	-0.083373	-0.495648	0.867024	-0.051013
19986	-9.706180	-0.889503	-0.408194	0.041737	0.020044	0.005300	1.118797	0.086225	-0.233910	0.097743	-0.002902	-0.995208	-0.863225	-0.497895	-0.083328	-0.495267	0.867233	-0.051171
19987	-9.743020	-0.838821	-0.448345	0.034763	0.022457	0.006321	1.122532	0.087933	-0.238806	0.097843	-0.003109	-0.995197	-0.863358	-0.497663	-0.083327	-0.495014	0.867365	-0.051377
19988	-9.767640	-0.785675	-0.435528	0.024047	0.021477	0.010405	1.121797	0.082800	-0.241809	0.097844	-0.003348	-0.995196	-0.863490	-0.497452	-0.083222	-0.494784	0.867485	-0.051564
19989	-9.823160	-0.731157	-0.438339	0.017624	0.025416	0.009734	1.113828	0.082963	-0.228624	0.097799	-0.003549	-0.995200	-0.863603	-0.497278	-0.083094	-0.494597	0.867584	-0.051698
19990	-9.844140	-0.718715	-0.436152	0.012384	0.020627	0.008128	1.125863	0.087573	-0.231624	0.097815	-0.003769	-0.995197	-0.863675	-0.497168	-0.083005	-0.494468	0.867646	-0.051885
19991	-9.856300	-0.720386	-0.490917	0.007757	0.013286	0.003862	1.121139	0.075157	-0.232402	0.097837	-0.004001	-0.995194	-0.863718	-0.497108	-0.082914	-0.494388	0.867679	-0.052091
19992	-9.852650	-0.760975	-0.502109	0.010537	0.005494	0.002242	1.128780	0.084168	-0.232608	0.097829	-0.004061	-0.995195	-0.863775	-0.497014	-0.082883	-0.494290	0.867733	-0.052130
19993	-9.829290	-0.780920	-0.473273	0.009603	0.001776	-0.002410	1.120057	0.090447	-0.234077	0.097733	-0.004183	-0.995204	-0.863905	-0.496811	-0.082751	-0.494082	0.867849	-0.052168
19994	-9.787220	-0.804330	-0.482161	0.011641	0.004684	0.000568	1.127410	0.087283	-0.238486	0.097735	-0.004228	-0.995203	-0.863966	-0.496707	-0.082736	-0.493975	0.867908	-0.052199
19995	-9.783580	-0.845207	-0.492890	0.015888	0.005975	0.000200	1.124272	0.090371	-0.239450	0.097773	-0.004243	-0.995200	-0.864023	-0.496602	-0.082768	-0.493867	0.867968	-0.052220
19996	-9.766160	-0.816006	-0.487317	0.016939	0.005392	0.001204	1.124507	0.097011	-0.234222	0.097773	-0.004297	-0.995199	-0.864111	-0.496453	-0.082750	-0.493714	0.868053	-0.052253
19997	-9.758600	-0.797201	-0.501521	0.017430	0.007136	0.002190	1.122793	0.091115	-0.237607	0.097878	-0.004285	-0.995189	-0.864130	-0.496403	-0.082851	-0.493660	0.868082	-0.052290
19998	-9.789470	-0.796051	-0.517062	0.009612	-0.002074	-0.000699	1.121688	0.085721	-0.230449	0.097859	-0.004264	-0.995191	-0.864179	-0.496317	-0.082850	-0.493577	0.868131	-0.052254
19999	-9.781950	-0.777429	-0.530233	0.003832	-0.008375	-0.000611	1.118074	0.079976	-0.238310	0.097842	-0.004185	-0.995193	-0.864172	-0.496325	-0.082873	-0.493592	0.868127	-0.052178
20000	-9.811560	-0.808981	-0.588587	-0.006273	-0.008046	-0.000897	1.126599	0.086396	-0.232466	0.097794	-0.004112	-0.995198	-0.864143	-0.496377	-0.082865	-0.493653	0.868097	-0.052096
20001	-9.833920	-0.764598	-0.540098	-0.009600	-0.001772	0.002411	1.126383	0.085744	-0.235342	0.097686	-0.004127	-0.995209	-0.864128	-0.496421	-0.082761	-0.493701	0.868072	-0.052060
20002	-9.841480	-0.783211	-0.526285	-0.010599	-0.001418	-0.001272	1.121032	0.082544	-0.239143	0.097675	-0.004110	-0.995210	-0.864077	-0.496511	-0.082754	-0.493792	0.868021	-0.052048
20003	-9.810590	-0.784372	-0.510924	-0.007456	0.000682	0.000032	1.127077	0.082413	-0.234378	0.097604	-0.004102	-0.995217	-0.864065	-0.496541	-0.082695	-0.493826	0.868004	-0.052009
20004	-9.767510	-0.783303	-0.442680	-0.004818	0.004883	-0.001360	1.119812	0.086053	-0.236943	0.097624	-0.004138	-0.995215	-0.864043	-0.496580	-0.082692	-0.493862	0.867981	-0.052054
20005	-9.744150	-0.803253	-0.413912	-0.005858	0.001618	-0.000655	1.127541	0.082454	-0.232164	0.097578	-0.004161	-0.995219	-0.864036	-0.496600	-0.082639	-0.493882	0.867969	-0.052053
20006	-9.813450	-0.819703	-0.431016	-0.012198	-0.002356	-0.000586	1.126188	0.082102	-0.241748	0.097555	-0.004139	-0.995221	-0.863978	-0.496704	-0.082625	-0.493988	0.867910	-0.052032
20007	-9.784920	-0.812598	-0.448302	-0.016306	-0.015642	-0.000445	1.125705	0.083642	-0.241479	0.097380	-0.004022	-0.995239	-0.863957	-0.496757	-0.082527	-0.494060	0.867880	-0.051849
20008	-9.806020	-0.800812	-0.442577	-0.019012	-0.015773	0.001915	1.125150	0.087755	-0.233440	0.097269	-0.003896	-0.995250	-0.863868	-0.496920	-0.082483	-0.494238	0.867788	-0.051701
20009	-9.806100	-0.800501	-0.441442	-0.009528	-0.009698	0.003151	1.128087	0.087881	-0.234173	0.097149	-0.003810	-0.995263	-0.863842	-0.496975	-0.082418	-0.494307	0.867756	-0.051572
20010	-9.850540	-0.768658	-0.465254	-0.007372	-0.011089	0.002481	1.130950	0.085169	-0.230563	0.097056	-0.003727	-0.995272	-0.863811	-0.497037	-0.082375	-0.494380	0.867722	-0.051460
20011	-9.825670	-0.720645	-0.471658	-0.002448	-0.016426	-0.001517	1.121161	0.086641	-0.227915	0.096994	-0.003667	-0.995278	-0.863824	-0.497017	-0.082352	-0.494368	0.867733	-0.051375
20012	-9.816930	-0.734806	-0.527358	-0.002333	-0.020728	-0.005165	1.122444	0.084740	-0.234530	0.096919	-0.003463	-0.995286	-0.863811	-0.497035	-0.082387	-0.494406	0.867724	-0.051163
20013	-9.762730	-0.756421	-0.480788	-0.008132	-0.023187	-0.006788	1.109982	0.085553	-0.233291	0.096867	-0.003308	-0.995292	-0.863759	-0.497121	-0.082413	-0.494508	0.867675	-0.051012
20014	-9.765150	-0.748683	-0.512308	-0.007702	-0.017368	-0.004831	1.122060	0.087745	-0.241600	0.096806	-0.003135	-0.995298	-0.863719	-0.497186	-0.082442	-0.494589	0.867639	-0.050839
20015	-9.738190	-0.809900	-0.491981	-0.008756	-0.016788	-0.005836	1.120080	0.084605	-0.241418	0.096751	-0.002905	-0.995304	-0.863630	-0.497329	-0.082500	-0.494754	0.867557	-0.050626
20016	-9.767920	-0.841640	-0.549436	-0.001897	-0.018762	-0.001504	1.132751	0.082909	-0.240548	0.096655	-0.002736	-0.995314	-0.863622	-0.497344	-0.082499	-0.494787	0.867549	-0.050434
20017	-9.744620	-0.861584	-0.518488	0.000207	-0.019929	0.000503	1.123670	0.087926	-0.233710	0.096458	-0.002536	-0.995334	-0.863671	-0.497270	-0.082432	-0.494741	0.867592	-0.050156
20018	-9.764570	-0.825703	-0.435183	0.009748	-0.014073	-0.000943	1.125621	0.080620	-0.238330	0.096380	-0.002411	-0.995342	-0.863721	-0.497183	-0.082431	-0.494669	0.867642	-0.050001
20019	-9.753500	-0.847900	-0.458005	0.007035	-0.010353	-0.000289	1.122752	0.089871	-0.237691	0.096286	-0.002368	-0.995351	-0.863784	-0.497083	-0.082376	-0.494577	0.867700	-0.049908
20020	-9.814200	-0.821340	-0.410251	0.007591	-0.012684	-0.000273	1.128001	0.080309	-0.233577	0.096209	-0.002258	-0.995359	-0.863824	-0.497014	-0.082368	-0.494522	0.867739	-0.049768
20021	-9.789340	-0.773421	-0.416659	0.003340	-0.013979	0.000099	1.124753	0.093002	-0.240084	0.096113	-0.002193	-0.995368	-0.863863	-0.496955	-0.082320	-0.494472	0.867774	-0.049658
20022	-9.794210	-0.756892	-0.482078	-0.006214	-0.015987	-0.000160	1.126859	0.086576	-0.236693	0.096019	-0.002055	-0.995377	-0.863835	-0.497006	-0.082303	-0.494540	0.867745	-0.049497
20023	-9.786770	-0.738147	-0.494518	-0.009980	-0.011684	-0.000508	1.120297	0.076230	-0.245912	0.095997	-0.001931	-0.995380	-0.863764	-0.497123	-0.082340	-0.494667	0.867678	-0.049390
20024	-9.797940	-0.773058	-0.590362	-0.012583	-0.012268	-0.003502	1.130110	0.090144	-0.241104	0.095951	-0.001809	-0.995384	-0.863701	-0.497230	-0.082353	-0.494786	0.867617	-0.049272
20025	-9.789260	-0.730183	-0.525938	-0.006287	-0.008061	-0.000898	1.128751	0.080585	-0.235583	0.095813	-0.001683	-0.995398	-0.863716	-0.497213	-0.082297	-0.494787	0.867627	-0.049094
20026	-9.741250	-0.802615	-0.510865	0.003824	-0.008383	-0.000625	1.118678	0.086700	-0.247155	0.095760	-0.001609	-0.995403	-0.863738	-0.497178	-0.082290	-0.494760	0.867647	-0.049000
20027	-9.719020	-0.790230	-0.437365	0.006514	-0.004401	-0.004695	1.117790	0.080097	-0.238093	0.095699	-0.001526	-0.995409	-0.863798	-0.497074	-0.082284	-0.494666	0.867707	-0.048888
20028	-9.737590	-0.787311	-0.399254	0.006455	-0.000322	-0.003724	1.121335	0.089779	-0.242619	0.095713	-0.001506	-0.995408	-0.863829	-0.497015	-0.082309	-0.494609	0.867740	-0.048872
20029	-9.728880	-0.801484	-0.456900	0.006395	0.003756	-0.002753	1.121292	0.088728	-0.239510	0.095704	-0.001493	-0.995409	-0.863856	-0.496968	-0.082311	-0.494564	0.867767	-0.048851
20030	-9.747420	-0.798373	-0.419816	0.005223	0.012495	-0.001814	1.119087	0.090754	-0.237355	0.095765	-0.001593	-0.995403	-0.863883	-0.496920	-0.082316	-0.494505	0.867795	-0.048964
20031	-9.791800	-0.767145	-0.445490	0.006880	0.009355	-0.003473	1.118510	0.079207	-0.236966	0.095877	-0.001622	-0.995392	-0.863867	-0.496934	-0.082398	-0.494511	0.867787	-0.049046
20032	-9.819060	-0.807146	-0.471697	0.002144	0.002460	-0.002380	1.123397	0.085335	-0.233336	0.095893	-0.001633	-0.995390	-0.863879	-0.496913	-0.082408	-0.494488	0.867799	-0.049061
20033	-9.842450	-0.787450	-0.501063	0.005292	0.004564	-0.001078	1.128059	0.085811	-0.234833	0.095865	-0.001742	-0.995393	-0.863929	-0.496838	-0.082335	-0.494406	0.867842	-0.049135
20034	-9.804000	-0.770156	-0.499620	-0.004151	-0.001749	-0.004984	1.126833	0.088609	-0.232523	0.095883	-0.001704	-0.995391	-0.863906	-0.496872	-0.082367	-0.494441	0.867822	-0.049113
20035	-9.777860	-0.755150	-0.551441	-0.004272	0.006407	-0.003043	1.126144	0.085090	-0.238198	0.095966	-0.001836	-0.995383	-0.863890	-0.496899	-0.082372	-0.494453	0.867807	-0.049271
20036	-9.732160	-0.762586	-0.450275	-0.009079	0.007441	-0.002686	1.123006	0.086274	-0.240371	0.096009	-0.001889	-0.995379	-0.863846	-0.496975	-0.082379	-0.494523	0.867763	-0.049346
20037	-9.734510	-0.754540	-0.484505	-0.009080	0.007441	-0.002687	1.118842	0.084320	-0.240388	0.096032	-0.001936	-0.995376	-0.863813	-0.497033	-0.082372	-0.494575	0.867730	-0.049404
20038	-9.762990	-0.761752	-0.466963	-0.008016	0.003007	0.000024	1.113950	0.085035	-0.239066	0.096030	-0.001964	-0.995376	-0.863777	-0.497100	-0.082353	-0.494640	0.867691	-0.049433
20039	-9.749440	-0.792019	-0.458296	-0.005983	0.009771	0.001295	1.120853	0.090594	-0.241013	0.096012	-0.002010	-0.995378	-0.863733	-0.497183	-0.082310	-0.494720	0.867643	-0.049472
20040	-9.785440	-0.817669	-0.427323	0.000930	0.007573	0.002946	1.126624	0.082449	-0.238826	0.096007	-0.002092	-0.995378	-0.863743	-0.497172	-0.082266	-0.494702	0.867649	-0.049539
20041	-9.802810	-0.846807	-0.434105	0.004177	0.009224	-0.001108	1.119846	0.091250	-0.237920	0.096033	-0.002138	-0.995376	-0.863765	-0.497133	-0.082268	-0.494659	0.867671	-0.049589
20042	-9.797650	-0.820026	-0.481913	0.013296	0.005408	-0.002806	1.123490	0.084415	-0.240614	0.096067	-0.002173	-0.995372	-0.863831	-0.497016	-0.082287	-0.494537	0.867739	-0.049624
20043	-9.802400	-0.803908	-0.548946	0.020815	0.000652	-0.003817	1.122928	0.085127	-0.233811	0.096099	-0.002119	-0.995370	-0.863909	-0.496870	-0.082349	-0.494395	0.867822	-0.049580
20044	-9.819520	-0.733236	-0.547670	0.023526	-0.003071	-0.004471	1.123012	0.086766	-0.239706	0.096105	-0.002072	-0.995369	-0.864024	-0.496664	-0.082390	-0.494193	0.867941	-0.049522
20045	-9.812000	-0.714991	-0.561088	0.019213	-0.000291	-0.003130	1.123447	0.085026	-0.236246	0.096115	-0.002074	-0.995368	-0.864116	-0.496500	-0.082406	-0.494029	0.868034	-0.049513
20046	-9.809600	-0.723511	-0.527419	0.006961	-0.002427	-0.001026	1.127951	0.089805	-0.242294	0.096095	-0.002050	-0.995370	-0.864153	-0.496437	-0.082404	-0.493970	0.868070	-0.049476
20047	-9.768770	-0.714330	-0.492365	0.004794	0.002814	-0.002065	1.128633	0.094781	-0.234850	0.096116	-0.002049	-0.995368	-0.864176	-0.496393	-0.082426	-0.493925	0.868095	-0.049482
20048	-9.783720	-0.752405	-0.465091	0.007594	0.002486	-0.009784	1.132581	0.090993	-0.240424	0.096196	-0.002023	-0.995360	-0.864207	-0.496325	-0.082512	-0.493855	0.868134	-0.049493
20049	-9.728050	-0.806796	-0.464962	0.009574	0.009477	-0.005839	1.130024	0.085767	-0.233792	0.096372	-0.002072	-0.995343	-0.864223	-0.496274	-0.082643	-0.493792	0.868164	-0.049618
20050	-9.735460	-0.826196	-0.451920	0.019184	0.007404	-0.006549	1.130113	0.089526	-0.238503	0.096449	-0.002105	-0.995336	-0.864315	-0.496105	-0.082703	-0.493617	0.868260	-0.049668
20051	-9.742880	-0.845527	-0.438852	0.015925	0.009604	-0.004205	1.122143	0.084965	-0.248545	0.096540	-0.002219	-0.995327	-0.864412	-0.495930	-0.082737	-0.493429	0.868359	-0.049796
20052	-9.720660	-0.833035	-0.366905	0.016368	0.011579	-0.000541	1.130135	0.084388	-0.243200	0.096586	-0.002319	-0.995322	-0.864495	-0.495786	-0.082736	-0.493275	0.868442	-0.049890
20053	-9.786060	-0.790211	-0.388284	0.016416	0.011348	-0.003220	1.122308	0.080046	-0.244643	0.096573	-0.002299	-0.995323	-0.864602	-0.495597	-0.082745	-0.493089	0.868549	-0.049850
20054	-9.787260	-0.757966	-0.345514	0.011116	0.010636	-0.003852	1.118872	0.083842	-0.240526	0.096643	-0.002374	-0.995316	-0.864656	-0.495498	-0.082774	-0.492981	0.868606	-0.049939
20055	-9.773270	-0.745578	-0.451411	0.003698	0.014933	-0.008204	1.121202	0.082605	-0.231441	0.096674	-0.002403	-0.995313	-0.864691	-0.495435	-0.082790	-0.492914	0.868642	-0.049973
20056	-9.817570	-0.715065	-0.477443	0.000060	0.011081	-0.010491	1.124092	0.089459	-0.243704	0.096802	-0.002448	-0.995301	-0.864684	-0.495432	-0.082880	-0.492901	0.868643	-0.050075
20057	-9.800270	-0.787135	-0.479233	-0.006328	0.007333	-0.007739	1.120559	0.093724	-0.231020	0.096879	-0.002469	-0.995293	-0.864643	-0.495494	-0.082933	-0.492957	0.868608	-0.050138
20058	-9.813700	-0.757565	-0.489458	-0.004732	0.008269	-0.008427	1.129344	0.082603	-0.237486	0.096976	-0.002500	-0.995284	-0.864615	-0.495533	-0.082999	-0.492988	0.868586	-0.050216
20059	-9.803740	-0.747852	-0.470488	-0.004174	0.005940	-0.008408	1.122134	0.086389	-0.244251	0.097099	-0.002551	-0.995271	-0.864578	-0.495583	-0.083078	-0.493028	0.868557	-0.050326
20060	-9.806000	-0.740539	-0.504619	-0.006279	0.007101	-0.010418	1.119070	0.074891	-0.240189	0.097207	-0.002562	-0.995261	-0.864540	-0.495636	-0.083164	-0.493074	0.868527	-0.050395
20061	-9.794700	-0.763781	-0.529388	-0.006230	0.006870	-0.013096	1.119173	0.088822	-0.239173	0.097216	-0.002506	-0.995260	-0.864534	-0.495639	-0.083199	-0.493081	0.868525	-0.050351
20062	-9.758930	-0.782534	-0.448187	-0.005260	0.014210	-0.012836	1.122887	0.087086	-0.244049	0.097380	-0.002567	-0.995244	-0.864499	-0.495683	-0.083309	-0.493111	0.868500	-0.050489
20063	-9.747590	-0.805691	-0.473638	-0.001610	0.014215	-0.008836	1.128469	0.087491	-0.240584	0.097492	-0.002559	-0.995233	-0.864464	-0.495726	-0.083408	-0.493150	0.868475	-0.050541
20064	-9.736250	-0.828836	-0.498978	-0.002053	0.012235	-0.012501	1.119306	0.083862	-0.231774	0.097644	-0.002603	-0.995218	-0.864445	-0.495742	-0.083516	-0.493154	0.868466	-0.050656
20065	-9.773490	-0.823156	-0.424592	0.010649	0.012503	-0.009222	1.127760	0.089731	-0.240139	0.097747	-0.002686	-0.995208	-0.864501	-0.495635	-0.083572	-0.493036	0.868527	-0.050769
20066	-9.759810	-0.854448	-0.416174	0.005909	0.009459	-0.009838	1.119092	0.084655	-0.232850	0.097862	-0.002720	-0.995196	-0.864523	-0.495582	-0.083658	-0.492974	0.868557	-0.050850
20067	-9.759690	-0.855359	-0.417200	0.001595	0.012239	-0.008502	1.125829	0.090362	-0.240719	0.097974	-0.002784	-0.995185	-0.864522	-0.495572	-0.083724	-0.492953	0.868562	-0.050960
20068	-9.771670	-0.758118	-0.464880	0.002629	0.015502	-0.009209	1.123490	0.084086	-0.232701	0.098113	-0.002873	-0.995171	-0.864529	-0.495547	-0.083802	-0.492914	0.868576	-0.051104
20069	-9.802410	-0.758017	-0.481808	0.001575	0.016080	-0.010215	1.126921	0.086651	-0.231532	0.098254	-0.002961	-0.995157	-0.864533	-0.495527	-0.083883	-0.492879	0.868588	-0.051247
20070	-9.820960	-0.755770	-0.445720	0.003712	0.018531	-0.012595	1.119712	0.091282	-0.237425	0.098437	-0.003060	-0.995139	-0.864542	-0.495492	-0.083995	-0.492827	0.868607	-0.051420
20071	-9.830630	-0.767451	-0.466867	-0.002603	0.010708	-0.010813	1.125269	0.092827	-0.231157	0.098590	-0.003109	-0.995123	-0.864504	-0.495540	-0.084101	-0.492862	0.868580	-0.051543
20072	-9.801940	-0.761109	-0.486401	-0.000148	0.019444	-0.005884	1.121664	0.091623	-0.236200	0.098719	-0.003249	-0.995110	-0.864501	-0.495539	-0.084144	-0.492842	0.868580	-0.051728
20073	-9.790570	-0.783796	-0.512093	0.000975	0.014789	-0.005845	1.127963	0.089226	-0.233323	0.098893	-0.003346	-0.995092	-0.864462	-0.495588	-0.084244	-0.492874	0.868551	-0.051903
20074	-9.776000	-0.790327	-0.427093	0.003602	0.018988	-0.007239	1.114329	0.089447	-0.235962	0.099032	-0.003476	-0.995078	-0.864476	-0.495555	-0.084303	-0.492823	0.868570	-0.052081
20075	-9.783370	-0.809714	-0.414988	0.000972	0.014787	-0.005846	1.128521	0.091377	-0.236812	0.099156	-0.003561	-0.995066	-0.864450	-0.495590	-0.084366	-0.492844	0.868549	-0.052219
20076	-9.754690	-0.803211	-0.434522	0.001514	0.016301	-0.007539	1.123524	0.086368	-0.230484	0.099284	-0.003666	-0.995052	-0.864452	-0.495575	-0.084428	-0.492813	0.868558	-0.052372
20077	-9.833600	-0.831215	-0.472641	-0.003148	0.009185	-0.009124	1.124567	0.088559	-0.233974	0.099404	-0.003722	-0.995040	-0.864432	-0.495598	-0.084503	-0.492825	0.868544	-0.052481
20078	-9.832040	-0.864588	-0.516797	-0.007840	-0.001539	-0.006317	1.120871	0.084407	-0.233918	0.099434	-0.003677	-0.995037	-0.864389	-0.495664	-0.084547	-0.492893	0.868507	-0.052465
20079	-9.841780	-0.875804	-0.536616	-0.013159	0.001584	-0.008670	1.121578	0.081216	-0.233698	0.099475	-0.003663	-0.995033	-0.864324	-0.495773	-0.084583	-0.493001	0.868445	-0.052483
20080	-9.826700	-0.838753	-0.564712	-0.003307	0.009880	-0.001087	1.123411	0.090787	-0.237245	0.099517	-0.003744	-0.995029	-0.864309	-0.495799	-0.084577	-0.493018	0.868429	-0.052576
20081	-9.743820	-0.852743	-0.539080	-0.003203	0.009416	-0.006444	1.118596	0.082190	-0.228439	0.099560	-0.003788	-0.995024	-0.864298	-0.495816	-0.084592	-0.493029	0.868419	-0.052638
20082	-9.747490	-0.812646	-0.529678	0.009603	0.009230	-0.008509	1.124930	0.092331	-0.239894	0.099663	-0.003827	-0.995014	-0.864339	-0.495731	-0.084667	-0.492935	0.868468	-0.052713
20083	-9.735300	-0.811115	-0.477355	0.008496	0.010039	-0.006837	1.125713	0.098796	-0.239306	0.099736	-0.003880	-0.995006	-0.864372	-0.495667	-0.084709	-0.492863	0.868504	-0.052789
20084	-9.698320	-0.761511	-0.433181	0.005749	0.017591	-0.007905	1.123251	0.093403	-0.240785	0.099874	-0.003994	-0.994992	-0.864395	-0.495615	-0.084776	-0.492795	0.868533	-0.052951
20085	-9.775650	-0.822160	-0.515680	-0.002273	0.020583	-0.007901	1.120733	0.092786	-0.234554	0.100089	-0.004001	-0.994970	-0.864316	-0.495723	-0.084952	-0.492890	0.868472	-0.053075
20086	-9.824410	-0.793928	-0.418176	-0.010815	0.018222	-0.004493	1.121717	0.095709	-0.232734	0.100201	-0.004137	-0.994959	-0.864261	-0.495815	-0.084977	-0.492964	0.868418	-0.053257
20087	-9.849910	-0.766543	-0.482363	-0.015418	0.010875	-0.008759	1.124686	0.085945	-0.242167	0.100383	-0.004143	-0.994940	-0.864119	-0.496037	-0.085118	-0.493174	0.868292	-0.053373
20088	-9.815830	-0.833534	-0.556128	-0.011896	0.022634	-0.007213	1.121633	0.090284	-0.228752	0.100540	-0.004304	-0.994924	-0.864056	-0.496139	-0.085170	-0.493253	0.868233	-0.053600
20089	-9.826970	-0.812260	-0.534124	-0.008553	0.016365	-0.010517	1.124200	0.095805	-0.234666	0.100666	-0.004365	-0.994911	-0.864001	-0.496221	-0.085244	-0.493323	0.868185	-0.053724
20090	-9.774860	-0.825770	-0.524887	-0.009199	0.022755	-0.009572	1.127819	0.087347	-0.236385	0.100845	-0.004515	-0.994892	-0.863949	-0.496299	-0.085320	-0.493379	0.868140	-0.053950
20091	-9.772420	-0.834995	-0.493383	-0.002152	0.016271	-0.011545	1.129476	0.086397	-0.232274	0.101020	-0.004555	-0.994874	-0.863914	-0.496338	-0.085449	-0.493404	0.868118	-0.054075
20092	-9.695570	-0.800590	-0.491253	-0.003182	0.013010	-0.010840	1.117284	0.085823	-0.233549	0.101161	-0.004614	-0.994859	-0.863890	-0.496364	-0.085541	-0.493418	0.868102	-0.054199
20093	-9.737590	-0.778631	-0.484106	-0.005291	0.014162	-0.012856	1.122766	0.085586	-0.222343	0.101275	-0.004686	-0.994847	-0.863869	-0.496389	-0.085603	-0.493430	0.868087	-0.054320
20094	-9.718560	-0.783096	-0.523382	-0.009616	0.016930	-0.011528	1.128323	0.091986	-0.232291	0.101442	-0.004776	-0.994830	-0.863812	-0.496471	-0.085699	-0.493495	0.868040	-0.054488
20095	-9.783700	-0.841615	-0.552858	-0.010240	0.019483	-0.008870	1.127532	0.087016	-0.230606	0.101610	-0.004984	-0.994812	-0.863772	-0.496536	-0.085738	-0.493532	0.868002	-0.054758
20096	-9.788810	-0.869265	-0.507726	-0.002351	0.020795	-0.005221	1.121583	0.093917	-0.237803	0.101741	-0.005138	-0.994798	-0.863757	-0.496554	-0.085774	-0.493530	0.867990	-0.054958
20097	-9.793960	-0.896742	-0.462641	0.002944	0.021515	-0.004574	1.122470	0.089580	-0.233236	0.101859	-0.005265	-0.994785	-0.863759	-0.496543	-0.085815	-0.493502	0.867996	-0.055126
20098	-9.805730	-0.899560	-0.518204	-0.001897	0.026371	-0.005949	1.126297	0.087555	-0.227726	0.102025	-0.005465	-0.994767	-0.863747	-0.496558	-0.085859	-0.493490	0.867986	-0.055381
20099	-9.821340	-0.861576	-0.563454	-0.005006	0.020427	-0.005548	1.124645	0.091540	-0.229040	0.102140	-0.005634	-0.994754	-0.863726	-0.496592	-0.085873	-0.493503	0.867966	-0.055588
20100	-9.815360	-0.810656	-0.535236	-0.007628	0.016230	-0.004160	1.126703	0.081502	-0.224646	0.102239	-0.005755	-0.994743	-0.863687	-0.496656	-0.085896	-0.493551	0.867928	-0.055748
20101	-9.807720	-0.792201	-0.550668	-0.004496	0.018335	-0.002848	1.120086	0.093356	-0.233537	0.102311	-0.005982	-0.994734	-0.863696	-0.496648	-0.085847	-0.493519	0.867932	-0.055979
20102	-9.738440	-0.775939	-0.535056	-0.001737	0.018230	-0.007882	1.124013	0.093911	-0.234303	0.102452	-0.006102	-0.994719	-0.863682	-0.496661	-0.085910	-0.493514	0.867923	-0.056154
20103	-9.766920	-0.783930	-0.518841	0.001479	0.016270	-0.007536	1.122365	0.075971	-0.232036	0.102603	-0.006123	-0.994704	-0.863638	-0.496719	-0.086026	-0.493561	0.867890	-0.056253
20104	-9.734260	-0.818322	-0.548517	-0.004303	0.013800	-0.009175	1.123161	0.088359	-0.227842	0.102734	-0.006197	-0.994690	-0.863609	-0.496755	-0.086101	-0.493583	0.867869	-0.056386
20105	-9.734090	-0.819191	-0.550126	-0.005444	0.018439	-0.009218	1.125682	0.092039	-0.231034	0.102782	-0.006354	-0.994684	-0.863622	-0.496739	-0.086066	-0.493552	0.867876	-0.056544
20106	-9.712820	-0.831458	-0.556173	-0.008151	0.018307	-0.006865	1.122469	0.092577	-0.227194	0.102915	-0.006479	-0.994669	-0.863577	-0.496809	-0.086115	-0.493602	0.867836	-0.056725
20107	-9.727700	-0.869507	-0.530854	0.000759	0.022880	-0.003912	1.126577	0.083494	-0.229815	0.103070	-0.006652	-0.994652	-0.863558	-0.496833	-0.086163	-0.493603	0.867820	-0.056953
20108	-9.762260	-0.827939	-0.538375	0.003348	0.023472	-0.000906	1.127873	0.091865	-0.229501	0.103177	-0.006852	-0.994639	-0.863576	-0.496802	-0.086159	-0.493549	0.867837	-0.057175
20109	-9.792930	-0.826872	-0.556223	0.006990	0.023489	0.003109	1.126109	0.078006	-0.234977	0.103209	-0.007091	-0.994634	-0.863643	-0.496700	-0.086075	-0.493425	0.867893	-0.057388
20110	-9.819710	-0.866398	-0.584223	0.008612	0.020592	0.004139	1.124628	0.086735	-0.227108	0.103258	-0.007291	-0.994628	-0.863693	-0.496623	-0.086024	-0.493328	0.867936	-0.057577
20111	-9.825020	-0.893131	-0.538990	0.009722	0.019783	0.002469	1.133309	0.090988	-0.234519	0.103202	-0.007491	-0.994632	-0.863799	-0.496462	-0.085888	-0.493154	0.868026	-0.057707
20112	-9.869300	-0.861599	-0.565828	0.016640	0.017610	0.004156	1.133279	0.097397	-0.227293	0.103236	-0.007665	-0.994627	-0.863888	-0.496315	-0.085842	-0.492990	0.868109	-0.057859
20113	-9.881020	-0.863938	-0.620084	0.010618	0.005042	-0.003083	1.125655	0.089103	-0.228921	0.103306	-0.007668	-0.994620	-0.863947	-0.496201	-0.085908	-0.492873	0.868174	-0.057885
20114	-9.859550	-0.851474	-0.547075	0.004390	-0.002998	-0.003998	1.119944	0.090103	-0.220492	0.103309	-0.007622	-0.994620	-0.863967	-0.496161	-0.085936	-0.492837	0.868197	-0.057843
20115	-9.808250	-0.788202	-0.605927	-0.004272	0.002532	-0.001360	1.129030	0.085778	-0.227672	0.103328	-0.007678	-0.994618	-0.863935	-0.496220	-0.085921	-0.492890	0.868163	-0.057907
20116	-9.808190	-0.788478	-0.606469	-0.003762	0.007872	-0.004767	1.119199	0.091640	-0.237479	0.103391	-0.007723	-0.994611	-0.863914	-0.496251	-0.085952	-0.492913	0.868145	-0.057981
20117	-9.777350	-0.789982	-0.591262	0.001712	0.000470	-0.006041	1.133158	0.105267	-0.230600	0.103387	-0.007642	-0.994612	-0.863918	-0.496237	-0.085989	-0.492906	0.868153	-0.057907
20118	-9.735070	-0.813645	-0.599564	0.009172	-0.000189	-0.006044	1.130795	0.093914	-0.225570	0.103421	-0.007610	-0.994609	-0.863960	-0.496156	-0.086040	-0.492826	0.868200	-0.057888
20119	-9.707830	-0.874878	-0.580839	0.014343	0.008423	-0.006140	1.121728	0.085392	-0.228904	0.103613	-0.007629	-0.994588	-0.863995	-0.496067	-0.086204	-0.492725	0.868251	-0.057990
20120	-9.682660	-0.927822	-0.596349	0.011514	0.016184	-0.004541	1.126724	0.096057	-0.229602	0.103716	-0.007747	-0.994577	-0.864049	-0.495965	-0.086241	-0.492608	0.868308	-0.058133
20121	-9.674740	-0.884897	-0.534080	0.012539	0.012014	0.000864	1.128854	0.096037	-0.224155	0.103748	-0.007833	-0.994573	-0.864102	-0.495875	-0.086233	-0.492508	0.868359	-0.058215
20122	-9.668930	-0.833629	-0.505524	0.007661	0.020689	-0.002238	1.123421	0.091385	-0.222329	0.103853	-0.008002	-0.994560	-0.864140	-0.495807	-0.086245	-0.492420	0.868396	-0.058406
20123	-9.732470	-0.823612	-0.571832	-0.000216	0.011950	0.000210	1.124175	0.083395	-0.229831	0.103958	-0.008151	-0.994548	-0.864123	-0.495833	-0.086261	-0.492427	0.868380	-0.058589
20124	-9.793700	-0.797248	-0.526737	-0.001145	0.004635	-0.000048	1.122835	0.087072	-0.237022	0.103965	-0.008191	-0.994547	-0.864120	-0.495841	-0.086247	-0.492431	0.868375	-0.058628
20125	-9.797850	-0.780843	-0.594137	-0.003791	0.004274	-0.000376	1.127420	0.086316	-0.233168	0.103878	-0.008167	-0.994556	-0.864117	-0.495857	-0.086182	-0.492454	0.868366	-0.058566
20126	-9.834030	-0.806983	-0.563197	-0.001658	0.006719	-0.002751	1.138303	0.086386	-0.224672	0.103918	-0.008212	-0.994552	-0.864109	-0.495870	-0.086194	-0.492460	0.868358	-0.058626
20127	-9.836030	-0.799190	-0.597501	0.004715	0.010460	-0.005478	1.117848	0.090943	-0.225290	0.103943	-0.008307	-0.994549	-0.864182	-0.495745	-0.086178	-0.492327	0.868428	-0.058708
20128	-9.814800	-0.811243	-0.602701	-0.000098	0.011480	-0.005149	1.121709	0.083499	-0.226907	0.104028	-0.008381	-0.994539	-0.864178	-0.495745	-0.086214	-0.492315	0.868428	-0.058814
20129	-9.777890	-0.861861	-0.564952	0.005254	0.011967	-0.007171	1.120487	0.080247	-0.228920	0.104101	-0.008458	-0.994531	-0.864187	-0.495726	-0.086242	-0.492285	0.868438	-0.058915
20130	-9.718330	-0.856271	-0.568409	-0.000133	0.015304	-0.006867	1.119121	0.089522	-0.229493	0.104219	-0.008557	-0.994518	-0.864181	-0.495725	-0.086295	-0.492269	0.868437	-0.059059
20131	-9.723640	-0.883874	-0.523049	-0.006094	0.020957	-0.006587	1.125817	0.084877	-0.221363	0.104286	-0.008685	-0.994509	-0.864149	-0.495784	-0.086287	-0.492312	0.868402	-0.059208
20132	-9.717800	-0.833176	-0.495270	-0.006130	0.024779	-0.008305	1.124943	0.088066	-0.226497	0.104463	-0.008859	-0.994489	-0.864112	-0.495836	-0.086351	-0.492339	0.868371	-0.059451
20133	-9.740800	-0.814226	-0.527089	-0.003487	0.025138	-0.007976	1.124521	0.087554	-0.231600	0.104605	-0.009092	-0.994472	-0.864107	-0.495844	-0.086359	-0.492318	0.868364	-0.059724
20134	-9.792520	-0.802294	-0.540681	-0.009252	0.015254	-0.003511	1.123795	0.094942	-0.226236	0.104693	-0.009207	-0.994462	-0.864061	-0.495922	-0.086373	-0.492381	0.868318	-0.059875
20135	-9.815590	-0.782830	-0.571684	-0.011421	0.016633	-0.002855	1.132571	0.099440	-0.221346	0.104777	-0.009289	-0.994452	-0.863989	-0.496044	-0.086398	-0.492489	0.868248	-0.060000
20136	-9.848240	-0.774054	-0.622482	-0.011840	0.014655	-0.006522	1.131728	0.098099	-0.232502	0.104889	-0.009384	-0.994440	-0.863926	-0.496145	-0.086441	-0.492575	0.868189	-0.060147
20137	-9.819400	-0.767354	-0.641785	-0.011841	0.014653	-0.006522	1.126984	0.093408	-0.227454	0.105090	-0.009443	-0.994418	-0.863843	-0.496266	-0.086578	-0.492679	0.868119	-0.060310
20138	-9.836400	-0.797538	-0.649270	-0.006329	0.010852	-0.012182	1.126545	0.094227	-0.230271	0.105232	-0.009477	-0.994403	-0.863801	-0.496321	-0.086681	-0.492721	0.868088	-0.060415
20139	-9.787930	-0.870788	-0.635325	-0.006808	0.009108	-0.013170	1.126803	0.082753	-0.220502	0.105390	-0.009434	-0.994386	-0.863739	-0.496403	-0.086834	-0.492797	0.868041	-0.060464
20140	-9.747430	-0.862465	-0.600895	-0.005792	0.012357	-0.013875	1.131853	0.098359	-0.221143	0.105554	-0.009472	-0.994368	-0.863698	-0.496452	-0.086954	-0.492833	0.868012	-0.060583
20141	-9.733630	-0.893969	-0.592881	-0.008062	0.017791	-0.012256	1.121273	0.086834	-0.223081	0.105743	-0.009639	-0.994347	-0.863666	-0.496495	-0.087033	-0.492849	0.867986	-0.060826
20142	-9.714270	-0.873828	-0.555249	-0.005579	0.022442	-0.008282	1.129581	0.092195	-0.219049	0.105909	-0.009793	-0.994328	-0.863632	-0.496542	-0.087098	-0.492873	0.867957	-0.061046
20143	-9.739250	-0.822277	-0.542997	0.000289	0.020852	-0.007593	1.124813	0.093640	-0.226449	0.106055	-0.009992	-0.994310	-0.863633	-0.496534	-0.087127	-0.492839	0.867960	-0.061290
20144	-9.765810	-0.838352	-0.493518	-0.004453	0.014222	-0.003839	1.128996	0.094854	-0.227805	0.106142	-0.010097	-0.994300	-0.863610	-0.496572	-0.087148	-0.492861	0.867937	-0.061427
20145	-9.760140	-0.811856	-0.541966	-0.002222	0.012609	-0.007174	1.122844	0.094158	-0.224320	0.106266	-0.010122	-0.994286	-0.863577	-0.496612	-0.087240	-0.492892	0.867913	-0.061514
20146	-9.819450	-0.818893	-0.541179	-0.009108	0.010945	-0.007161	1.122688	0.089733	-0.215311	0.106365	-0.010182	-0.994275	-0.863527	-0.496690	-0.087292	-0.492958	0.867868	-0.061623
20147	-9.813780	-0.792437	-0.589362	-0.009648	0.009436	-0.005469	1.121870	0.091407	-0.226155	0.106465	-0.010276	-0.994263	-0.863457	-0.496807	-0.087324	-0.493059	0.867800	-0.061765
20148	-9.844380	-0.792077	-0.606063	-0.011179	0.008265	-0.007470	1.127766	0.096162	-0.225025	0.106554	-0.010311	-0.994253	-0.863396	-0.496903	-0.087377	-0.493146	0.867745	-0.061849
20149	-9.825090	-0.796053	-0.644715	-0.008572	0.012449	-0.008853	1.130082	0.090235	-0.219473	0.106687	-0.010336	-0.994239	-0.863324	-0.497011	-0.087472	-0.493244	0.867683	-0.061948
20150	-9.818890	-0.846013	-0.622908	-0.008035	0.013955	-0.010545	1.127249	0.091049	-0.226021	0.106831	-0.010405	-0.994223	-0.863276	-0.497080	-0.087558	-0.493298	0.867642	-0.062086
20151	-9.805110	-0.877296	-0.614849	-0.003797	0.015254	-0.010890	1.128909	0.088895	-0.223470	0.106968	-0.010510	-0.994207	-0.863264	-0.497089	-0.087624	-0.493289	0.867636	-0.062246
20152	-9.816560	-0.856279	-0.592306	-0.002165	0.012369	-0.009853	1.128950	0.092017	-0.223899	0.107097	-0.010569	-0.994192	-0.863245	-0.497108	-0.087707	-0.493294	0.867625	-0.062362
20153	-9.785690	-0.858248	-0.577834	-0.004275	0.013510	-0.011879	1.122824	0.090742	-0.222791	0.107224	-0.010641	-0.994178	-0.863232	-0.497118	-0.087780	-0.493289	0.867618	-0.062489
20154	-9.733550	-0.896070	-0.644209	-0.014139	0.001863	-0.012442	1.120913	0.098311	-0.219919	0.107324	-0.010596	-0.994168	-0.863151	-0.497240	-0.087881	-0.493409	0.867548	-0.062511
20155	-9.714350	-0.876124	-0.604983	-0.007833	0.005841	-0.012475	1.120607	0.092743	-0.219127	0.107475	-0.010577	-0.994152	-0.863066	-0.497364	-0.088012	-0.493525	0.867477	-0.062583
20156	-9.729950	-0.814464	-0.571049	-0.000801	-0.000365	-0.011733	1.130854	0.085263	-0.224108	0.107558	-0.010516	-0.994143	-0.863052	-0.497371	-0.088113	-0.493531	0.867474	-0.062572
20157	-9.768230	-0.809327	-0.495930	0.001908	-0.000234	-0.014078	1.126162	0.090160	-0.215956	0.107622	-0.010478	-0.994137	-0.863064	-0.497336	-0.088190	-0.493496	0.867495	-0.062568
20158	-9.772050	-0.794318	-0.563051	0.003457	0.004521	-0.016472	1.120673	0.090956	-0.224740	0.107770	-0.010436	-0.994121	-0.863066	-0.497306	-0.088342	-0.493461	0.867512	-0.062602
20159	-9.816100	-0.789088	-0.665600	-0.009630	-0.005185	-0.017396	1.132541	0.087311	-0.219878	0.107860	-0.010339	-0.994112	-0.862999	-0.497400	-0.088461	-0.493557	0.867460	-0.062572
20160	-9.833120	-0.819585	-0.671198	-0.016663	-0.009972	-0.007632	1.129590	0.090659	-0.215692	0.107860	-0.010215	-0.994114	-0.862911	-0.497544	-0.088512	-0.493711	0.867379	-0.062479
20161	-9.800410	-0.829543	-0.621279	-0.010295	-0.006225	-0.010345	1.135306	0.095213	-0.219708	0.107873	-0.010215	-0.994112	-0.862896	-0.497568	-0.088522	-0.493734	0.867365	-0.062489
20162	-9.796230	-0.871283	-0.631434	-0.009391	0.001077	-0.010082	1.123340	0.093468	-0.220825	0.107949	-0.010175	-0.994104	-0.862841	-0.497649	-0.088601	-0.493814	0.867319	-0.062500
20163	-9.784630	-0.869932	-0.578197	-0.006163	-0.000868	-0.009724	1.126720	0.083951	-0.225110	0.108031	-0.010160	-0.994096	-0.862807	-0.497695	-0.088677	-0.493856	0.867293	-0.062533
20164	-9.730690	-0.891563	-0.532729	-0.011827	-0.007400	-0.012349	1.126741	0.092580	-0.219898	0.108085	-0.010035	-0.994091	-0.862738	-0.497797	-0.088778	-0.493965	0.867235	-0.062462
20165	-9.713560	-0.863358	-0.525853	-0.017124	-0.008138	-0.013019	1.127248	0.094588	-0.219668	0.108078	-0.009937	-0.994093	-0.862673	-0.497903	-0.088812	-0.494079	0.867176	-0.062385
20166	-9.746180	-0.855451	-0.574495	-0.019238	-0.007002	-0.015045	1.124752	0.090063	-0.218799	0.108156	-0.009803	-0.994086	-0.862564	-0.498070	-0.088935	-0.494252	0.867081	-0.062325
20167	-9.769310	-0.837102	-0.602752	-0.018984	-0.018933	-0.015266	1.129347	0.098665	-0.227579	0.108174	-0.009618	-0.994085	-0.862458	-0.498236	-0.089030	-0.494433	0.866988	-0.062192
20168	-9.800140	-0.813126	-0.539802	-0.017623	-0.013475	-0.009616	1.127028	0.094376	-0.221571	0.108174	-0.009455	-0.994087	-0.862363	-0.498388	-0.089100	-0.494599	0.866903	-0.062066
20169	-9.798000	-0.846401	-0.582540	-0.014501	-0.011365	-0.008292	1.127958	0.093824	-0.218518	0.108189	-0.009297	-0.994087	-0.862277	-0.498523	-0.089181	-0.494746	0.866827	-0.061951
20170	-9.815050	-0.876475	-0.587645	-0.020812	-0.015359	-0.008262	1.129357	0.089924	-0.216468	0.108167	-0.009124	-0.994091	-0.862168	-0.498702	-0.089236	-0.494941	0.866725	-0.061809
20171	-9.788400	-0.861345	-0.637632	-0.025162	-0.012618	-0.006951	1.124862	0.092942	-0.225324	0.108142	-0.009079	-0.994094	-0.862058	-0.498894	-0.089223	-0.495137	0.866615	-0.061778
20172	-9.722830	-0.904398	-0.615674	-0.017799	-0.009196	-0.005970	1.124398	0.094307	-0.226258	0.108132	-0.008971	-0.994096	-0.861966	-0.499047	-0.089256	-0.495300	0.866528	-0.061695
20173	-9.715310	-0.886073	-0.628736	-0.007248	-0.003892	-0.006344	1.119218	0.091700	-0.224223	0.108127	-0.008884	-0.994097	-0.861924	-0.499113	-0.089290	-0.495374	0.866491	-0.061624
20174	-9.692150	-0.882283	-0.521630	0.000806	-0.006834	-0.006310	1.123728	0.101303	-0.225761	0.108131	-0.008794	-0.994098	-0.861924	-0.499106	-0.089338	-0.495374	0.866497	-0.061548
20175	-9.727020	-0.841210	-0.526011	-0.002274	-0.012771	-0.005925	1.122941	0.101700	-0.221384	0.108114	-0.008617	-0.994101	-0.861874	-0.499180	-0.089406	-0.495465	0.866456	-0.061395
20176	-9.772760	-0.878652	-0.513246	-0.008050	-0.015258	-0.007584	1.129566	0.094324	-0.229633	0.108087	-0.008449	-0.994106	-0.861828	-0.499249	-0.089462	-0.495550	0.866418	-0.061243
20177	-9.786430	-0.873017	-0.598492	-0.016595	-0.017652	-0.004216	1.126951	0.085416	-0.223233	0.108044	-0.008246	-0.994112	-0.861723	-0.499421	-0.089513	-0.495742	0.866320	-0.061065
20178	-9.830940	-0.842511	-0.621367	-0.016702	-0.031801	-0.010801	1.124026	0.100946	-0.230861	0.107963	-0.007918	-0.994123	-0.861631	-0.499565	-0.089595	-0.495920	0.866240	-0.060757
20179	-9.785360	-0.806548	-0.629778	-0.014593	-0.032946	-0.008780	1.124313	0.092615	-0.222035	0.107823	-0.007573	-0.994141	-0.861560	-0.499680	-0.089637	-0.496074	0.866177	-0.060401
20180	-9.770550	-0.769606	-0.653677	-0.001242	-0.035147	-0.008087	1.120235	0.094826	-0.226327	0.107701	-0.007229	-0.994157	-0.861547	-0.499690	-0.089702	-0.496122	0.866174	-0.060045
20181	-9.783580	-0.816319	-0.589617	0.014122	-0.034427	-0.004402	1.125547	0.094371	-0.222497	0.107536	-0.006923	-0.994177	-0.861605	-0.499588	-0.089718	-0.496058	0.866235	-0.059688
20182	-9.732980	-0.897172	-0.538503	0.019804	-0.024293	-0.006167	1.128015	0.096772	-0.223043	0.107452	-0.006683	-0.994188	-0.861699	-0.499416	-0.089776	-0.495913	0.866337	-0.059422
20183	-9.705530	-0.934241	-0.439888	0.014977	-0.023297	-0.005840	1.127329	0.095964	-0.227368	0.107384	-0.006499	-0.994196	-0.861767	-0.499290	-0.089816	-0.495809	0.866410	-0.059216
20184	-9.642060	-0.968640	-0.450362	0.008826	-0.016968	0.002491	1.125352	0.095421	-0.226335	0.107262	-0.006365	-0.994210	-0.861816	-0.499212	-0.089782	-0.495751	0.866456	-0.059032
20185	-9.688660	-0.905004	-0.429850	0.008880	-0.017204	-0.000190	1.120727	0.093635	-0.229100	0.107160	-0.006218	-0.994222	-0.861860	-0.499137	-0.089772	-0.495695	0.866501	-0.058846
20186	-9.704610	-0.866373	-0.470742	0.007331	-0.021974	0.002199	1.124204	0.095061	-0.232964	0.107016	-0.006039	-0.994239	-0.861901	-0.499072	-0.089740	-0.495655	0.866540	-0.058614
20187	-9.751260	-0.802337	-0.449849	0.002398	-0.020506	0.007890	1.118683	0.097427	-0.220309	0.106800	-0.005852	-0.994263	-0.861916	-0.499063	-0.089646	-0.495675	0.866546	-0.058344
20188	-9.825520	-0.701502	-0.525221	-0.007781	-0.020017	0.010240	1.120480	0.097938	-0.227284	0.106596	-0.005731	-0.994286	-0.861891	-0.499129	-0.089525	-0.495763	0.866509	-0.058144
20189	-9.856700	-0.723533	-0.615462	-0.033579	-0.037544	0.012086	1.116564	0.094993	-0.229654	0.106331	-0.005479	-0.994316	-0.861690	-0.499498	-0.089395	-0.496169	0.866298	-0.057833
20190	-9.816840	-0.736395	-0.654020	-0.040638	-0.034948	0.015757	1.127074	0.095185	-0.231317	0.106005	-0.005256	-0.994352	-0.861508	-0.499848	-0.089200	-0.496556	0.866097	-0.057515
20191	-9.769530	-0.730580	-0.706549	-0.046949	-0.031775	0.007013	1.129855	0.087832	-0.225832	0.105759	-0.004981	-0.994379	-0.861265	-0.500285	-0.089095	-0.497030	0.865846	-0.057199
20192	-9.782480	-0.775869	-0.643253	-0.041068	-0.029761	0.003298	1.127711	0.091557	-0.227873	0.105566	-0.004741	-0.994401	-0.861066	-0.500640	-0.089024	-0.497415	0.865643	-0.056932
20193	-9.755260	-0.836149	-0.621176	-0.040645	-0.046259	-0.003289	1.118962	0.093884	-0.230029	0.105295	-0.004393	-0.994431	-0.860907	-0.500927	-0.088944	-0.497747	0.865478	-0.056527
20194	-9.825720	-0.921032	-0.597851	-0.042266	-0.050824	0.001773	1.122206	0.099248	-0.232480	0.105010	-0.003964	-0.994463	-0.860701	-0.501292	-0.088887	-0.498164	0.865269	-0.056052
20195	-9.807820	-0.967787	-0.517317	-0.039671	-0.046634	0.000392	1.121985	0.090384	-0.222367	0.104765	-0.003527	-0.994491	-0.860473	-0.501686	-0.088867	-0.498609	0.865043	-0.055594
20196	-9.819970	-0.969571	-0.566371	-0.037031	-0.046275	0.000716	1.116519	0.092699	-0.233118	0.104511	-0.003131	-0.994519	-0.860291	-0.502005	-0.088825	-0.498975	0.864859	-0.055159
20197	-9.854860	-1.051870	-0.651598	-0.040054	-0.056319	0.000112	1.121924	0.100392	-0.231183	0.104184	-0.002684	-0.994554	-0.860086	-0.502371	-0.088742	-0.499397	0.864648	-0.054648
20198	-9.834530	-1.087120	-0.728081	-0.035148	-0.057795	-0.005597	1.121409	0.091136	-0.236294	0.103927	-0.002158	-0.994583	-0.859907	-0.502674	-0.088764	-0.499759	0.864474	-0.054097
20199	-9.786160	-1.159800	-0.708687	-0.022800	-0.056046	-0.013022	1.129301	0.100474	-0.236511	0.103737	-0.001580	-0.994603	-0.859764	-0.502898	-0.088875	-0.500044	0.864344	-0.053528
20200	-9.797760	-1.139690	-0.679719	-0.006278	-0.045286	-0.024202	1.122968	0.102604	-0.236354	0.103702	-0.001068	-0.994608	-0.859710	-0.502952	-0.089097	-0.500145	0.864314	-0.053076
20201	-9.765370	-1.051050	-0.619036	0.010673	-0.039763	-0.022946	1.123645	0.102792	-0.231898	0.103730	-0.000554	-0.994605	-0.859712	-0.502897	-0.089382	-0.500135	0.864346	-0.052642
20202	-9.723240	-0.952102	-0.538839	0.021870	-0.036971	-0.026019	1.125339	0.101666	-0.231432	0.103753	-0.000105	-0.994603	-0.859797	-0.502707	-0.089637	-0.499985	0.864457	-0.052248
20203	-9.671960	-0.866788	-0.516818	0.019608	-0.027928	-0.028750	1.121245	0.092419	-0.241723	0.103916	0.000276	-0.994586	-0.859828	-0.502593	-0.089975	-0.499897	0.864523	-0.051991
20204	-9.656500	-0.808055	-0.464124	0.016815	-0.020402	-0.029793	1.120738	0.095732	-0.237710	0.104054	0.000600	-0.994571	-0.859883	-0.502447	-0.090266	-0.499774	0.864608	-0.051765
20205	-9.618150	-0.792771	-0.460412	0.004947	-0.016817	-0.025748	1.124843	0.100131	-0.230846	0.104125	0.000922	-0.994564	-0.859887	-0.502401	-0.090491	-0.499753	0.864634	-0.051520
20206	-9.596860	-0.806281	-0.463544	0.002027	-0.008589	-0.018742	1.128002	0.091084	-0.235430	0.104227	0.001089	-0.994553	-0.859879	-0.502382	-0.090664	-0.499744	0.864645	-0.051425
20207	-9.604100	-0.826516	-0.449533	0.001723	0.000252	-0.008730	1.122959	0.099935	-0.235985	0.104276	0.001082	-0.994548	-0.859902	-0.502336	-0.090706	-0.499695	0.864672	-0.051451
20208	-9.673140	-0.844232	-0.466823	0.009605	0.001855	-0.002396	1.129990	0.096935	-0.234001	0.104290	0.001077	-0.994546	-0.859949	-0.502252	-0.090720	-0.499611	0.864721	-0.051453
20209	-9.701600	-0.851594	-0.449772	0.014481	0.019370	0.007544	1.127446	0.102297	-0.241460	0.104315	0.000858	-0.994544	-0.860035	-0.502119	-0.090640	-0.499457	0.864798	-0.051641
20210	-9.726830	-0.799135	-0.436832	0.015008	0.024494	0.001471	1.122752	0.101637	-0.237487	0.104408	0.000637	-0.994534	-0.860114	-0.501988	-0.090618	-0.499302	0.864874	-0.051864
20211	-9.743160	-0.804456	-0.368256	0.002612	0.030170	0.002821	1.117472	0.093714	-0.230777	0.104546	0.000427	-0.994520	-0.860107	-0.501999	-0.090632	-0.499286	0.864868	-0.052115
20212	-9.733370	-0.793766	-0.351447	-0.011246	0.030593	0.001188	1.122897	0.094627	-0.234058	0.104672	0.000155	-0.994507	-0.860054	-0.502095	-0.090599	-0.499351	0.864812	-0.052422
20213	-9.699190	-0.734868	-0.342228	-0.027275	0.032384	0.000221	1.117781	0.097274	-0.232776	0.104791	-0.000156	-0.994494	-0.859920	-0.502336	-0.090532	-0.499556	0.864672	-0.052774
20214	-9.684700	-0.741236	-0.259366	-0.045526	0.039378	-0.001781	1.124944	0.091298	-0.242713	0.104986	-0.000488	-0.994474	-0.859693	-0.502729	-0.090511	-0.499906	0.864444	-0.053199
20215	-9.678130	-0.790381	-0.240713	-0.053557	0.038453	-0.000081	1.120062	0.098686	-0.237414	0.105113	-0.000784	-0.994460	-0.859432	-0.503186	-0.090444	-0.500327	0.864178	-0.053565
20216	-9.681240	-0.849845	-0.242299	-0.061731	0.045426	0.000900	1.120134	0.098541	-0.223850	0.105316	-0.001182	-0.994438	-0.859126	-0.503718	-0.090388	-0.500810	0.863867	-0.054065
20217	-9.663150	-0.920786	-0.248803	-0.066008	0.047675	-0.003136	1.119709	0.098335	-0.228278	0.105582	-0.001584	-0.994409	-0.858764	-0.504337	-0.090377	-0.501375	0.863505	-0.054609
20218	-9.680950	-1.018410	-0.224550	-0.067288	0.056344	-0.002182	1.123172	0.096664	-0.232209	0.105867	-0.002060	-0.994378	-0.858426	-0.504917	-0.090347	-0.501893	0.863165	-0.055223
20219	-9.686260	-1.069550	-0.261499	-0.063161	0.061706	-0.001554	1.119398	0.093402	-0.225154	0.106172	-0.002592	-0.994344	-0.858095	-0.505488	-0.090306	-0.502396	0.862829	-0.055893
20220	-9.764710	-1.097090	-0.305657	-0.052506	0.062975	-0.002924	1.132483	0.101649	-0.229626	0.106497	-0.003122	-0.994308	-0.857830	-0.505941	-0.090291	-0.502779	0.862563	-0.056559
20221	-9.736120	-1.113260	-0.407856	-0.036575	0.068853	-0.005320	1.125425	0.105604	-0.227561	0.106873	-0.003727	-0.994266	-0.857648	-0.506249	-0.090290	-0.503009	0.862379	-0.057301
20222	-9.709510	-1.121210	-0.543937	-0.016917	0.078156	-0.010745	1.126753	0.096584	-0.222331	0.107342	-0.004348	-0.994213	-0.857553	-0.506394	-0.090373	-0.503071	0.862291	-0.058086
20223	-9.689990	-1.148750	-0.667128	0.007575	0.086476	-0.016495	1.118487	0.099915	-0.221157	0.107939	-0.005039	-0.994145	-0.857558	-0.506356	-0.090543	-0.502935	0.862310	-0.058977
20224	-9.710420	-1.139050	-0.671332	0.032482	0.093151	-0.014179	1.123691	0.099017	-0.226135	0.108513	-0.005772	-0.994078	-0.857708	-0.506075	-0.090688	-0.502555	0.862470	-0.059866
20225	-9.663980	-1.103890	-0.691390	0.049506	0.098209	-0.018230	1.122771	0.100374	-0.227795	0.109164	-0.006539	-0.994002	-0.857911	-0.505695	-0.090891	-0.502067	0.862688	-0.060813
20226	-9.648290	-1.044360	-0.650426	0.056033	0.112023	-0.015293	1.127119	0.094644	-0.226677	0.109841	-0.007430	-0.993921	-0.858178	-0.505212	-0.091063	-0.501464	0.862964	-0.061869
20227	-9.668620	-1.034810	-0.656609	0.048950	0.114290	-0.014332	1.120212	0.097598	-0.217298	0.110495	-0.008315	-0.993842	-0.858414	-0.504783	-0.091215	-0.500916	0.863206	-0.062913
20228	-9.816370	-0.957054	-0.637723	0.045224	0.106992	-0.009617	1.118054	0.103993	-0.232270	0.111097	-0.009191	-0.993767	-0.858631	-0.504393	-0.091324	-0.500409	0.863425	-0.063928
20229	-9.848680	-0.924856	-0.618964	0.050118	0.094725	-0.002159	1.122929	0.094245	-0.219505	0.111582	-0.009932	-0.993706	-0.858836	-0.504031	-0.091400	-0.499951	0.863628	-0.064771
20230	-9.878780	-0.924655	-0.642842	0.054262	0.078303	-0.004731	1.122104	0.096374	-0.228195	0.111998	-0.010586	-0.993652	-0.859103	-0.503562	-0.091468	-0.499397	0.863894	-0.065492
20231	-9.816910	-0.927326	-0.618209	0.052225	0.075346	-0.007748	1.124807	0.103685	-0.222526	0.112376	-0.011158	-0.993603	-0.859361	-0.503109	-0.091543	-0.498870	0.864151	-0.066126
20232	-9.735110	-0.956968	-0.708863	0.035449	0.087010	-0.012272	1.126349	0.094617	-0.215799	0.112899	-0.011849	-0.993536	-0.859526	-0.502803	-0.091674	-0.498467	0.864320	-0.066951
20233	-9.689380	-1.013210	-0.769076	0.017258	0.086290	-0.011010	1.121674	0.103398	-0.222997	0.113409	-0.012524	-0.993469	-0.859591	-0.502670	-0.091789	-0.498238	0.864388	-0.067773
20234	-9.743140	-0.969136	-0.744642	0.008662	0.073113	0.005489	1.116925	0.095013	-0.220910	0.113710	-0.013185	-0.993427	-0.859643	-0.502594	-0.091726	-0.498081	0.864422	-0.068484
20235	-9.737040	-0.940889	-0.797545	0.014840	0.052501	0.014741	1.123236	0.098682	-0.214725	0.113816	-0.013624	-0.993408	-0.859697	-0.502523	-0.091605	-0.497962	0.864457	-0.068907
20236	-9.805010	-0.864616	-0.778791	0.021221	0.027629	0.020346	1.135462	0.095995	-0.218433	0.113762	-0.013966	-0.993410	-0.859828	-0.502336	-0.091403	-0.497749	0.864560	-0.069155
20237	-9.873890	-0.879521	-0.798209	0.021297	-0.004811	0.030349	1.130895	0.088786	-0.212348	0.113447	-0.014077	-0.993444	-0.859984	-0.502126	-0.091091	-0.497552	0.864680	-0.069070
20238	-9.905670	-0.851924	-0.734595	0.022103	-0.036446	0.030621	1.124647	0.094514	-0.216477	0.112986	-0.013916	-0.993499	-0.860130	-0.501930	-0.090788	-0.497403	0.864796	-0.068680
20239	-9.962090	-0.872233	-0.661436	0.005422	-0.057199	0.036079	1.124419	0.096676	-0.217579	0.112320	-0.013647	-0.993578	-0.860234	-0.501831	-0.090354	-0.497375	0.864858	-0.068105
20240	-9.887590	-0.911336	-1.026020	-0.050964	-0.083842	0.033683	1.124915	0.097242	-0.219683	0.111597	-0.013092	-0.993667	-0.860020	-0.502266	-0.089970	-0.497907	0.864614	-0.067311
20241	-9.839300	-1.026990	-1.155810	-0.073293	-0.132928	0.033295	1.127867	0.098101	-0.223524	0.110630	-0.012084	-0.993788	-0.859681	-0.502914	-0.089586	-0.498707	0.864252	-0.066026
20242	-9.758940	-1.099560	-1.382890	-0.033491	-0.098916	0.027460	1.126031	0.092559	-0.220346	0.109884	-0.011368	-0.993879	-0.859547	-0.503199	-0.089276	-0.499104	0.864096	-0.065065
20243	-9.734230	-1.196560	-1.543900	0.026215	-0.074460	0.027468	1.130835	0.100345	-0.228573	0.109245	-0.010843	-0.993956	-0.859716	-0.502959	-0.089004	-0.498953	0.864243	-0.064267
20244	-9.727380	-1.305050	-1.332150	0.069673	-0.083396	0.024631	1.132501	0.102666	-0.225209	0.108600	-0.010247	-0.994033	-0.860092	-0.502353	-0.088789	-0.498445	0.864602	-0.063369
20245	-9.839670	-1.379300	-0.960140	0.101990	-0.099219	0.023803	1.123216	0.097759	-0.230562	0.107929	-0.009442	-0.994114	-0.860622	-0.501465	-0.088673	-0.497676	0.865127	-0.062249
20246	-9.936870	-1.363100	-0.760856	0.098949	-0.105712	0.018793	1.122308	0.094571	-0.221260	0.107225	-0.008622	-0.994197	-0.861136	-0.500606	-0.088533	-0.496938	0.865632	-0.061102
20247	-9.981040	-1.263060	-0.810468	0.070935	-0.114758	0.012439	1.126370	0.097750	-0.233006	0.106547	-0.007654	-0.994278	-0.861486	-0.500016	-0.088468	-0.496478	0.865982	-0.059869
20248	-10.098500	-1.164410	-0.943310	0.045625	-0.141866	-0.003799	1.128678	0.101828	-0.221205	0.105859	-0.006407	-0.994360	-0.861710	-0.499620	-0.088518	-0.496235	0.866221	-0.058410
20249	-10.225200	-1.178530	-1.099940	0.043415	-0.177523	-0.023648	1.122219	0.097239	-0.237098	0.105229	-0.004732	-0.994437	-0.861887	-0.499259	-0.088827	-0.496061	0.866440	-0.056615
20250	-10.333000	-1.293360	-1.029630	0.060288	-0.194739	-0.033629	1.121874	0.092507	-0.234389	0.104537	-0.002877	-0.994517	-0.862153	-0.498737	-0.089181	-0.495746	0.866748	-0.054616
20251	-10.425900	-1.371780	-0.982515	0.091450	-0.240511	-0.043432	1.123663	0.097347	-0.239388	0.103701	-0.000514	-0.994608	-0.862552	-0.497958	-0.089675	-0.495227	0.867201	-0.052082
20252	-10.406000	-1.364920	-0.880772	0.121864	-0.284153	-0.053321	1.126168	0.102910	-0.243225	0.102738	0.002216	-0.994706	-0.863102	-0.496899	-0.090253	-0.494469	0.867805	-0.049138
20253	-10.180800	-1.298870	-0.758164	0.139947	-0.304427	-0.059738	1.121712	0.098956	-0.243572	0.101779	0.005222	-0.994793	-0.863720	-0.495693	-0.090971	-0.493587	0.868482	-0.045941
20254	-10.089900	-1.250900	-0.558267	0.135346	-0.314212	-0.058756	1.119941	0.096097	-0.243057	0.100721	0.008243	-0.994881	-0.864330	-0.494513	-0.091601	-0.492736	0.869131	-0.042684
20255	-9.968310	-1.169850	-0.299541	0.096142	-0.324018	-0.052769	1.121007	0.098080	-0.251831	0.099598	0.011325	-0.994963	-0.864747	-0.493675	-0.092182	-0.492233	0.869573	-0.039376
20256	-9.808460	-1.026460	-0.154120	0.029451	-0.340829	-0.049045	1.129900	0.094757	-0.264707	0.098328	0.014531	-0.995048	-0.864845	-0.493412	-0.092667	-0.492315	0.869674	-0.035949
20257	-9.589250	-0.865152	-0.170440	-0.042089	-0.356434	-0.042150	1.123347	0.099876	-0.250124	0.096909	0.017895	-0.995132	-0.864620	-0.493730	-0.093078	-0.492993	0.869431	-0.032374
20258	-9.500230	-0.626149	-0.193128	-0.095288	-0.360538	-0.023092	1.119567	0.094472	-0.266362	0.095313	0.021143	-0.995223	-0.864129	-0.494553	-0.093264	-0.494163	0.868890	-0.028867
20259	-9.409770	-0.463542	-0.021637	-0.133211	-0.352367	-0.005631	1.117178	0.100547	-0.272641	0.093614	0.024208	-0.995314	-0.863487	-0.495672	-0.093271	-0.495607	0.868173	-0.025499
20260	-9.369650	-0.491318	0.249622	-0.174851	-0.344298	0.007930	1.111419	0.100202	-0.266741	0.091820	0.027156	-0.995405	-0.862628	-0.497190	-0.093136	-0.497435	0.867216	-0.022227
20261	-9.358680	-0.550727	0.460755	-0.216053	-0.326743	0.019147	1.123170	0.093082	-0.276459	0.090029	0.029939	-0.995489	-0.861554	-0.499088	-0.092926	-0.499619	0.866034	-0.019138
20262	-9.482420	-0.618026	0.592432	-0.245060	-0.303566	0.021116	1.110912	0.101222	-0.274818	0.088311	0.032460	-0.995564	-0.860347	-0.501215	-0.092659	-0.502000	0.864714	-0.016336
20263	-9.527900	-0.814710	0.626525	-0.253338	-0.259278	0.018655	1.118939	0.101802	-0.276550	0.086814	0.034612	-0.995623	-0.859112	-0.503376	-0.092410	-0.504371	0.863374	-0.013965
20264	-9.532280	-0.965994	0.609518	-0.245957	-0.226245	0.019317	1.112291	0.107103	-0.274692	0.085489	0.036466	-0.995672	-0.857887	-0.505504	-0.092172	-0.506678	0.862053	-0.011931
20265	-9.585030	-1.117330	0.738316	-0.233594	-0.209976	0.023610	1.114772	0.092663	-0.284742	0.084264	0.038131	-0.995714	-0.856713	-0.507533	-0.091937	-0.508863	0.860788	-0.010099
20266	-9.612690	-1.288380	0.893856	-0.233407	-0.211896	0.034216	1.118406	0.101852	-0.284560	0.082874	0.039780	-0.995766	-0.855553	-0.509554	-0.091561	-0.511038	0.859519	-0.008195
20267	-9.665700	-1.370830	0.985078	-0.257882	-0.210933	0.043409	1.105651	0.106066	-0.283399	0.081381	0.041356	-0.995825	-0.854312	-0.511721	-0.091068	-0.513350	0.858156	-0.006313
20268	-9.645950	-1.339970	0.790382	-0.326649	-0.185394	0.023296	1.118841	0.100659	-0.288185	0.080211	0.042826	-0.995857	-0.852651	-0.514530	-0.090804	-0.516288	0.856402	-0.004756
20269	-9.739000	-1.234220	0.338059	-0.361788	-0.146485	-0.000215	1.114632	0.108055	-0.284350	0.079468	0.044074	-0.995863	-0.850776	-0.517626	-0.090799	-0.519486	0.854471	-0.003638
20270	-9.911330	-1.154450	-0.457240	-0.311298	-0.111937	-0.009437	1.113481	0.110724	-0.290895	0.078949	0.045078	-0.995859	-0.849149	-0.520278	-0.090869	-0.522220	0.852806	-0.002798
20271	-10.279800	-1.353740	-1.090690	-0.170715	-0.111629	0.028752	1.115691	0.100794	-0.295925	0.078172	0.045874	-0.995884	-0.848260	-0.521770	-0.090619	-0.523779	0.851852	-0.001875
20272	-10.442400	-1.635780	-0.995116	-0.061058	-0.144100	0.078791	1.115272	0.105642	-0.285881	0.076733	0.046690	-0.995958	-0.848002	-0.522326	-0.089820	-0.524409	0.851467	-0.000487
20273	-10.716200	-1.714810	-0.755617	-0.026337	-0.130649	0.104826	1.115306	0.105154	-0.294353	0.075158	0.047222	-0.996053	-0.847983	-0.522539	-0.088759	-0.524668	0.851307	0.000770
20274	-11.171800	-1.702100	-0.520337	-0.020543	-0.159878	0.119359	1.104536	0.108544	-0.298585	0.073291	0.047958	-0.996157	-0.847965	-0.522770	-0.087556	-0.524960	0.851123	0.002353
20275	-11.207200	-1.487580	-0.185217	-0.017470	-0.237684	0.124579	1.116180	0.100911	-0.301003	0.071020	0.049366	-0.996253	-0.847933	-0.523020	-0.086364	-0.525324	0.850889	0.004714
20276	-10.730500	-1.234530	-0.242193	0.040300	-0.270154	0.095499	1.114222	0.109969	-0.308099	0.068776	0.051165	-0.996319	-0.848213	-0.522726	-0.085396	-0.525171	0.850964	0.007448
20277	-9.932500	-0.873641	-0.292662	0.099836	-0.273102	0.064988	1.110205	0.096962	-0.305648	0.066825	0.053200	-0.996345	-0.848766	-0.521925	-0.084795	-0.524529	0.851331	0.010276
20278	-9.149100	-0.620170	-0.500567	0.099649	-0.285113	0.051974	1.106716	0.088087	-0.305475	0.064874	0.055356	-0.996357	-0.849324	-0.521105	-0.084252	-0.523870	0.851696	0.013209
20279	-8.693720	-0.198330	-0.672944	0.067119	-0.324596	0.064513	1.107236	0.090610	-0.315758	0.062601	0.057750	-0.996366	-0.849781	-0.520471	-0.083558	-0.523405	0.851924	0.016493
20280	-8.703080	0.317822	-0.935402	-0.012474	-0.338743	0.079439	1.110419	0.099087	-0.325887	0.060136	0.060222	-0.996372	-0.849766	-0.520624	-0.082755	-0.523719	0.851659	0.019866
20281	-9.073290	0.618593	-0.842022	-0.064991	-0.364318	0.088271	1.107293	0.097229	-0.316886	0.057450	0.062919	-0.996364	-0.849502	-0.521191	-0.081895	-0.524449	0.851117	0.023507
20282	-9.614510	0.623817	-0.675191	-0.070711	-0.360839	0.099435	1.105533	0.090623	-0.320532	0.054696	0.065470	-0.996354	-0.849187	-0.521857	-0.080908	-0.525251	0.850517	0.027053
20283	-10.226400	0.317272	-0.456023	-0.069722	-0.337246	0.111543	1.105178	0.100725	-0.322595	0.051990	0.067709	-0.996350	-0.848905	-0.522486	-0.079802	-0.525983	0.849955	0.030314
20284	-10.513500	-0.088617	-0.314708	-0.069553	-0.312519	0.133271	1.100579	0.091351	-0.334813	0.049198	0.069667	-0.996356	-0.848607	-0.523169	-0.078483	-0.526731	0.849377	0.033381
20285	-10.515000	-0.485501	-0.381257	-0.050878	-0.294333	0.164189	1.106088	0.088521	-0.335570	0.046276	0.071308	-0.996380	-0.848382	-0.523772	-0.076887	-0.527359	0.848869	0.036258
20286	-10.407900	-0.915306	-0.404174	-0.022056	-0.295873	0.185354	1.102070	0.087941	-0.337763	0.043127	0.072847	-0.996410	-0.848349	-0.524093	-0.075035	-0.527678	0.848540	0.039197
20287	-10.235400	-1.032930	-0.221299	0.041757	-0.323186	0.181713	1.096795	0.094790	-0.340021	0.039876	0.074623	-0.996414	-0.848672	-0.523831	-0.073194	-0.527414	0.848548	0.042442
20288	-10.080600	-0.871075	-0.044771	0.134673	-0.336567	0.171519	1.105329	0.086592	-0.349868	0.036630	0.076582	-0.996390	-0.849448	-0.522818	-0.071412	-0.526399	0.848998	0.045901
20289	-9.930410	-0.604266	0.017886	0.202717	-0.346924	0.155377	1.097458	0.082095	-0.355936	0.033509	0.078742	-0.996332	-0.850502	-0.521319	-0.069806	-0.524903	0.849721	0.049502
20290	-9.678560	-0.313518	0.160986	0.241338	-0.363792	0.137104	1.099541	0.082889	-0.358188	0.030421	0.081122	-0.996240	-0.851811	-0.519377	-0.068302	-0.522965	0.850686	0.053300
20291	-9.485570	-0.101830	0.256252	0.244062	-0.398627	0.125960	1.104257	0.078977	-0.350611	0.027252	0.083915	-0.996100	-0.853083	-0.517464	-0.066932	-0.521063	0.851580	0.057485
20292	-9.500470	-0.018255	0.300266	0.231387	-0.433015	0.117879	1.091050	0.076409	-0.361123	0.023978	0.086996	-0.995920	-0.854317	-0.515595	-0.065607	-0.519199	0.852405	0.061959
20293	-9.448140	0.018540	0.103794	0.225626	-0.454465	0.104069	1.093738	0.072087	-0.372699	0.020764	0.090276	-0.995700	-0.855512	-0.513760	-0.064421	-0.517367	0.853171	0.066564
20294	-9.391500	0.016344	-0.011960	0.222150	-0.465547	0.092108	1.084840	0.068077	-0.369364	0.017556	0.093777	-0.995438	-0.856677	-0.511950	-0.063338	-0.515554	0.853881	0.071349
20295	-9.270680	0.080246	0.114358	0.228426	-0.467562	0.093987	1.094057	0.069599	-0.378487	0.014327	0.097287	-0.995153	-0.857876	-0.510076	-0.062217	-0.513657	0.854609	0.076153
20296	-9.246200	0.191691	0.052313	0.253057	-0.453581	0.086258	1.093444	0.073323	-0.381835	0.011246	0.100727	-0.994851	-0.859184	-0.507999	-0.061147	-0.511542	0.855448	0.080830
20297	-9.318430	0.224794	0.096955	0.280485	-0.452936	0.068672	1.088042	0.071001	-0.389282	0.008362	0.104221	-0.994519	-0.860595	-0.505716	-0.060233	-0.509222	0.856381	0.085463
20298	-9.330430	0.220981	0.119289	0.294672	-0.432142	0.059537	1.089031	0.067892	-0.400745	0.005639	0.107624	-0.994176	-0.862096	-0.503256	-0.059370	-0.506714	0.857409	0.089944
20299	-9.288140	0.147718	0.075030	0.290351	-0.427034	0.044880	1.080159	0.063663	-0.394854	0.003080	0.111081	-0.993807	-0.863472	-0.500973	-0.058672	-0.504388	0.858305	0.094372
20300	-9.298010	0.059995	0.074202	0.275246	-0.416947	0.040770	1.081324	0.065498	-0.402549	0.000614	0.114458	-0.993428	-0.864857	-0.498657	-0.057988	-0.502017	0.859209	0.098683
20301	-9.295680	-0.060373	-0.083642	0.255521	-0.401561	0.028006	1.081762	0.064597	-0.404914	-0.001639	0.117741	-0.993043	-0.866067	-0.496616	-0.057452	-0.499925	0.859948	0.102785
20302	-9.310500	-0.125228	-0.296940	0.224759	-0.392356	0.018619	1.083515	0.059774	-0.412372	-0.003773	0.121024	-0.992642	-0.867188	-0.494706	-0.057019	-0.497967	0.860592	0.106817
20303	-9.245350	-0.183342	-0.307995	0.204753	-0.392388	0.007959	1.072721	0.060398	-0.415011	-0.005785	0.124320	-0.992225	-0.868153	-0.493045	-0.056714	-0.496263	0.861075	0.110781
20304	-9.309480	-0.149601	-0.412604	0.202955	-0.387955	-0.004673	1.078556	0.058408	-0.414908	-0.007682	0.127685	-0.991785	-0.869158	-0.491294	-0.056519	-0.494475	0.861584	0.114752
20305	-9.435830	0.055898	-0.405742	0.230994	-0.378122	-0.025575	1.077120	0.057709	-0.424144	-0.009317	0.131013	-0.991337	-0.870253	-0.489355	-0.056494	-0.492517	0.862188	0.118574
20306	-9.480370	0.199489	-0.562111	0.245183	-0.353128	-0.052306	1.068806	0.057887	-0.426131	-0.010612	0.134315	-0.990882	-0.871463	-0.487173	-0.056704	-0.490347	0.862915	0.122220
20307	-9.534250	0.317378	-0.395160	0.230962	-0.353411	-0.079754	1.071829	0.053623	-0.431055	-0.011651	0.137709	-0.990404	-0.872546	-0.485173	-0.057196	-0.488393	0.863507	0.125810
20308	-9.504830	0.317674	-0.221833	0.229935	-0.345778	-0.103533	1.071083	0.056435	-0.434257	-0.012447	0.141197	-0.989903	-0.873678	-0.483045	-0.057915	-0.486345	0.864136	0.129373
20309	-9.530290	0.132706	-0.134086	0.239441	-0.330745	-0.121337	1.066844	0.049776	-0.437620	-0.012983	0.144583	-0.989407	-0.874867	-0.480783	-0.058777	-0.484189	0.864837	0.132733
20310	-9.596180	-0.141893	-0.166382	0.247215	-0.317203	-0.136046	1.063258	0.048215	-0.439703	-0.013339	0.147981	-0.988900	-0.876079	-0.478448	-0.059778	-0.481984	0.865557	0.136025
20311	-9.621100	-0.287683	-0.068876	0.247191	-0.309248	-0.134231	1.058343	0.054536	-0.446852	-0.013614	0.151238	-0.988404	-0.877445	-0.475819	-0.060721	-0.479484	0.866443	0.139181
