// Start Time: Unknown
// Update Rate: 100.0Hz
// Filter Profile: human (46.1)
// Firmware Version: 4.6.0
PacketCounter	Acc_X	Acc_Y	Acc_Z	Gyr_X	Gyr_Y	Gyr_Z	Mag_X	Mag_Y	Mag_Z	Mat[1][1]	Mat[2][1]	Mat[3][1]	Mat[1][2]	Mat[2][2]	Mat[3][2]	Mat[1][3]	Mat[2][3]	Mat[3][3]
19648	-9.733720	-1.134220	-0.649331	0.008943	0.008268	0.001835	0.896156	0.586834	0.025395	0.132011	-0.034833	-0.990636	-0.957931	-0.261410	-0.118462	-0.254835	0.964599	-0.067877
19649	-9.710730	-1.117580	-0.702637	0.000624	0.006389	-0.001900	0.893488	0.588340	0.030839	0.132046	-0.034890	-0.990629	-0.957930	-0.261404	-0.118481	-0.254821	0.964599	-0.067939
19650	-9.687720	-1.100850	-0.756166	-0.007865	0.011012	0.002263	0.893945	0.581444	0.019106	0.132060	-0.035009	-0.990623	-0.957911	-0.261485	-0.118458	-0.254886	0.964572	-0.068067
19651	-9.749760	-1.166230	-0.771072	-0.002261	0.008995	0.000331	0.893219	0.579936	0.020279	0.132079	-0.035096	-0.990618	-0.957906	-0.261507	-0.118453	-0.254896	0.964563	-0.068158
19652	-9.744490	-1.201760	-0.712947	0.008942	0.008269	0.001838	0.893687	0.588451	0.021323	0.132029	-0.035068	-0.990625	-0.957955	-0.261340	-0.118423	-0.254737	0.964610	-0.068098
19653	-9.707380	-1.128290	-0.753650	0.008613	0.011347	0.001525	0.896392	0.579461	0.020254	0.132043	-0.035182	-0.990619	-0.957979	-0.261256	-0.118414	-0.254640	0.964628	-0.068201
19654	-9.730300	-1.144810	-0.701931	0.006138	0.009279	0.002804	0.900046	0.584290	0.022128	0.132003	-0.035204	-0.990624	-0.958015	-0.261140	-0.118377	-0.254524	0.964659	-0.068198
19655	-9.713020	-1.099120	-0.737461	0.014132	0.010927	0.000860	0.884640	0.584933	0.016845	0.132022	-0.035312	-0.990618	-0.958052	-0.261003	-0.118378	-0.254374	0.964692	-0.068289
19656	-9.705630	-1.133560	-0.780121	0.011329	0.011937	0.001825	0.890511	0.578879	0.015869	0.131986	-0.035345	-0.990621	-0.958105	-0.260823	-0.118348	-0.254194	0.964739	-0.068289
19657	-9.715030	-1.232550	-0.657727	0.006387	0.004490	-0.000987	0.901807	0.576435	0.030148	0.132007	-0.035386	-0.990617	-0.958120	-0.260762	-0.118362	-0.254127	0.964754	-0.068326
19658	-9.740020	-1.224510	-0.712306	0.005883	0.014074	0.006597	0.891030	0.578121	0.023420	0.131964	-0.035519	-0.990618	-0.958152	-0.260676	-0.118293	-0.254029	0.964773	-0.068432
19659	-9.754080	-1.148390	-0.706933	0.007573	0.009636	0.004377	0.900485	0.588004	0.014460	0.131947	-0.035623	-0.990616	-0.958177	-0.260602	-0.118255	-0.253944	0.964789	-0.068519
19660	-9.753070	-1.160190	-0.654630	-0.000665	0.009469	0.004742	0.900072	0.579238	0.027095	0.131880	-0.035636	-0.990625	-0.958205	-0.260527	-0.118192	-0.253873	0.964809	-0.068505
19661	-9.762010	-1.251840	-0.609435	0.013082	0.012529	0.009085	0.899351	0.576267	0.028216	0.131825	-0.035781	-0.990627	-0.958250	-0.260398	-0.118111	-0.253731	0.964838	-0.068614
19662	-9.689420	-1.231130	-0.685914	0.026340	0.018554	0.010274	0.893691	0.580904	0.021330	0.131808	-0.036050	-0.990619	-0.958319	-0.260174	-0.118042	-0.253478	0.964889	-0.068841
19663	-9.624440	-1.025140	-0.831383	0.028366	0.007724	0.003002	0.898125	0.576277	0.027986	0.131799	-0.036132	-0.990618	-0.958395	-0.259899	-0.118032	-0.253196	0.964960	-0.068884
19664	-9.662480	-0.953583	-0.826267	0.000770	0.009827	0.006312	0.890501	0.578872	0.016636	0.131774	-0.036270	-0.990616	-0.958406	-0.259886	-0.117974	-0.253168	0.964958	-0.069008
19665	-9.717840	-1.059780	-0.805957	-0.002434	0.012198	0.002855	0.897346	0.584040	0.022907	0.131778	-0.036395	-0.990611	-0.958403	-0.259909	-0.117944	-0.253176	0.964947	-0.069131
19666	-9.741770	-1.064130	-0.807490	0.008774	0.008160	-0.000995	0.892473	0.584173	0.025622	0.131759	-0.036447	-0.990611	-0.958446	-0.259762	-0.117924	-0.253025	0.964985	-0.069158
19667	-9.739140	-1.082020	-0.778734	0.000538	0.007991	-0.000636	0.901748	0.572532	0.017342	0.131786	-0.036522	-0.990605	-0.958446	-0.259757	-0.117930	-0.253009	0.964983	-0.069237
19668	-9.751280	-1.163150	-0.685746	-0.000657	0.006158	-0.000629	0.894911	0.581562	0.023811	0.131742	-0.036613	-0.990608	-0.958464	-0.259719	-0.117868	-0.252964	0.964990	-0.069308
19669	-9.762790	-1.237540	-0.669696	0.003412	0.008700	0.002509	0.894687	0.577571	0.026113	0.131740	-0.036703	-0.990605	-0.958476	-0.259685	-0.117845	-0.252920	0.964996	-0.069390
19670	-9.687530	-1.235310	-0.716212	0.012840	0.010704	0.002145	0.894918	0.580772	0.025499	0.131739	-0.036896	-0.990598	-0.958515	-0.259561	-0.117805	-0.252774	0.965022	-0.069560
19671	-9.675290	-1.153810	-0.810750	0.003725	0.008940	0.008194	0.893193	0.577079	0.019513	0.131683	-0.037004	-0.990601	-0.958535	-0.259522	-0.117726	-0.252727	0.965028	-0.069644
19672	-9.696780	-1.175400	-0.782442	0.006698	0.004732	0.004705	0.895631	0.586885	0.025484	0.131634	-0.037116	-0.990603	-0.958570	-0.259421	-0.117657	-0.252617	0.965051	-0.069727
19673	-9.725630	-1.162630	-0.712292	0.009414	0.005322	0.005008	0.893689	0.577489	0.021734	0.131599	-0.037181	-0.990606	-0.958601	-0.259329	-0.117614	-0.252520	0.965073	-0.069769
19674	-9.760460	-1.102040	-0.754669	0.006197	0.011012	0.006919	0.899782	0.578539	0.020286	0.131603	-0.037375	-0.990598	-0.958628	-0.259246	-0.117575	-0.252414	0.965088	-0.069946
19675	-9.722340	-1.040560	-0.742039	0.003824	0.004024	0.001561	0.902046	0.568667	0.029935	0.131598	-0.037418	-0.990597	-0.958640	-0.259209	-0.117562	-0.252372	0.965096	-0.069982
19676	-9.747020	-1.051300	-0.666259	-0.003302	0.007289	0.003174	0.891227	0.580251	0.019658	0.131468	-0.037651	-0.990605	-0.958658	-0.259227	-0.117375	-0.252372	0.965082	-0.070174
19677	-9.688390	-1.087960	-0.754863	-0.002023	0.007524	0.001905	0.901981	0.578505	0.021507	0.131468	-0.037729	-0.990602	-0.958655	-0.259246	-0.117355	-0.252382	0.965074	-0.070251
19678	-9.694180	-1.191240	-0.756755	-0.000743	0.007759	0.000635	0.900773	0.578153	0.024434	0.131440	-0.037847	-0.990601	-0.958678	-0.259184	-0.117302	-0.252309	0.965086	-0.070350
19679	-9.660260	-1.238950	-0.768795	0.012214	0.004314	0.004050	0.898065	0.579281	0.020093	0.131412	-0.037899	-0.990603	-0.958714	-0.259065	-0.117270	-0.252186	0.965116	-0.070379
19680	-9.686710	-1.093020	-0.780180	0.006539	0.004614	0.001865	0.901760	0.578528	0.027627	0.131375	-0.038034	-0.990603	-0.958753	-0.258950	-0.117208	-0.252059	0.965142	-0.070484
19681	-9.708970	-0.970695	-0.785953	0.000623	0.006394	-0.001899	0.895427	0.576714	0.030032	0.131408	-0.038091	-0.990596	-0.958752	-0.258945	-0.117227	-0.252044	0.965141	-0.070547
19682	-9.759440	-0.961871	-0.817157	-0.007283	0.003145	-0.001231	0.895169	0.575402	0.025835	0.131406	-0.038329	-0.990587	-0.958731	-0.259054	-0.117156	-0.252125	0.965102	-0.070789
19683	-9.802380	-1.006260	-0.759800	-0.008805	0.004391	-0.001540	0.894640	0.579084	0.018645	0.131431	-0.038368	-0.990583	-0.958707	-0.259140	-0.117165	-0.252204	0.965077	-0.070843
19684	-9.774190	-1.025420	-0.753764	-0.008633	0.001191	-0.004068	0.898534	0.582529	0.018267	0.131386	-0.038492	-0.990584	-0.958710	-0.259164	-0.117088	-0.252217	0.965066	-0.070953
19685	-9.768370	-1.054760	-0.771892	-0.007353	0.001426	-0.005337	0.907338	0.581951	0.021386	0.131441	-0.038492	-0.990576	-0.958684	-0.259237	-0.117135	-0.252285	0.965046	-0.070976
19686	-9.773330	-1.019700	-0.831094	-0.010070	0.000837	-0.005640	0.899290	0.573757	0.017702	0.131407	-0.038587	-0.990577	-0.958689	-0.259244	-0.117078	-0.252283	0.965041	-0.071059
19687	-9.742620	-1.056930	-0.795172	-0.006938	-0.003253	-0.006287	0.896905	0.569697	0.028313	0.131458	-0.038539	-0.990572	-0.958664	-0.259313	-0.117135	-0.252354	0.965024	-0.071035
19688	-9.741650	-1.069750	-0.741974	-0.002078	0.002487	-0.007572	0.895645	0.578845	0.025232	0.131320	-0.038756	-0.990582	-0.958697	-0.259273	-0.116949	-0.252298	0.965026	-0.071203
19689	-9.735810	-1.099380	-0.759874	0.001297	-0.003084	-0.006641	0.898553	0.579518	0.020360	0.131374	-0.038709	-0.990577	-0.958692	-0.259262	-0.117014	-0.252290	0.965031	-0.071171
19690	-9.729080	-1.141050	-0.724571	-0.001922	0.002607	-0.004729	0.903715	0.577559	0.027598	0.131329	-0.038885	-0.990576	-0.958713	-0.259224	-0.116929	-0.252234	0.965034	-0.071323
19691	-9.738930	-1.089260	-0.712657	0.003597	0.002186	-0.005387	0.896837	0.579585	0.018418	0.131385	-0.038892	-0.990568	-0.958715	-0.259191	-0.116983	-0.252197	0.965043	-0.071340
19692	-9.749670	-1.025400	-0.753810	0.000967	-0.000003	-0.006954	0.892971	0.587306	0.034106	0.131319	-0.039052	-0.990571	-0.958745	-0.259127	-0.116884	-0.252119	0.965053	-0.071469
19693	-9.729750	-0.998256	-0.758961	-0.003029	-0.000828	-0.005988	0.902682	0.584733	0.018337	0.131372	-0.039029	-0.990565	-0.958730	-0.259158	-0.116939	-0.252149	0.965046	-0.071464
19694	-9.743760	-1.055540	-0.771793	-0.006075	0.001663	-0.006605	0.899569	0.573946	0.025776	0.131432	-0.039197	-0.990550	-0.958707	-0.259239	-0.116948	-0.252205	0.965018	-0.071650
19695	-9.730310	-1.138630	-0.701241	-0.001820	-0.002310	-0.011363	0.899117	0.565542	0.028402	0.131535	-0.039145	-0.990538	-0.958687	-0.259260	-0.117059	-0.252225	0.965014	-0.071629
19696	-9.722790	-1.174040	-0.742936	0.003352	0.003669	-0.006964	0.901265	0.579545	0.026461	0.131356	-0.039446	-0.990550	-0.958728	-0.259219	-0.116813	-0.252162	0.965013	-0.071868
19697	-9.705380	-1.129190	-0.777790	0.006399	0.001179	-0.006347	0.906152	0.577625	0.025882	0.131418	-0.039442	-0.990542	-0.958736	-0.259160	-0.116878	-0.252099	0.965029	-0.071873
19698	-9.677140	-1.148790	-0.771412	0.000966	-0.000001	-0.006953	0.898826	0.575007	0.023375	0.131323	-0.039667	-0.990546	-0.958757	-0.259151	-0.116731	-0.252070	0.965022	-0.072064
19699	-9.698530	-1.171580	-0.742626	0.009027	0.003370	-0.004779	0.901738	0.579452	0.022304	0.131374	-0.039689	-0.990538	-0.958774	-0.259066	-0.116781	-0.251979	0.965044	-0.072087
19700	-9.720670	-1.200800	-0.636986	0.014702	0.003071	-0.002593	0.891772	0.572142	0.027699	0.131255	-0.039894	-0.990546	-0.958854	-0.258836	-0.116631	-0.251736	0.965097	-0.072226
19701	-9.731450	-1.136760	-0.678288	0.017173	0.005144	-0.003867	0.898334	0.578603	0.025221	0.131302	-0.039935	-0.990538	-0.958892	-0.258672	-0.116678	-0.251565	0.965139	-0.072258
19702	-9.711530	-1.109490	-0.683744	0.009025	0.003371	-0.004777	0.906129	0.584255	0.024908	0.131276	-0.040121	-0.990534	-0.958925	-0.258580	-0.116614	-0.251454	0.965156	-0.072418
19703	-9.686730	-1.098900	-0.760290	0.009182	0.003491	-0.001935	0.896371	0.576545	0.021248	0.131300	-0.040152	-0.990529	-0.958946	-0.258493	-0.116635	-0.251362	0.965178	-0.072443
19704	-9.687560	-1.087210	-0.813674	0.011827	0.002364	-0.005736	0.895885	0.579860	0.024060	0.131251	-0.040302	-0.990530	-0.959003	-0.258315	-0.116563	-0.251171	0.965220	-0.072554
19705	-9.704770	-1.133630	-0.778944	0.019988	0.000822	-0.010191	0.898345	0.574942	0.025090	0.131347	-0.040286	-0.990518	-0.959040	-0.258127	-0.116674	-0.250979	0.965271	-0.072540
19706	-9.737000	-1.092200	-0.791269	0.019882	0.005743	-0.003558	0.900788	0.569698	0.021714	0.131308	-0.040485	-0.990515	-0.959111	-0.257892	-0.116605	-0.250725	0.965325	-0.072693
19707	-9.747770	-1.028420	-0.832592	0.017340	0.001952	-0.006388	0.897826	0.576166	0.018298	0.131371	-0.040489	-0.990506	-0.959147	-0.257728	-0.116676	-0.250557	0.965369	-0.072693
19708	-9.735300	-0.966977	-0.796180	0.009039	0.000055	-0.010142	0.896141	0.579291	0.026236	0.131249	-0.040626	-0.990517	-0.959235	-0.257458	-0.116545	-0.250282	0.965435	-0.072761
19709	-9.752510	-1.013410	-0.761320	0.001052	-0.001603	-0.008214	0.903242	0.571276	0.025425	0.131318	-0.040591	-0.990509	-0.959228	-0.257451	-0.116621	-0.250274	0.965438	-0.072744
19710	-9.771370	-1.054230	-0.702557	0.001226	-0.004803	-0.010739	0.896853	0.576637	0.018562	0.131247	-0.040743	-0.990512	-0.959245	-0.257437	-0.116514	-0.250247	0.965436	-0.072870
19711	-9.737300	-1.103030	-0.713645	-0.007092	-0.003382	-0.009127	0.897838	0.575139	0.019480	0.131319	-0.040689	-0.990505	-0.959216	-0.257509	-0.116592	-0.250320	0.965419	-0.072846
19712	-9.748680	-1.178310	-0.696737	-0.015655	-0.000481	-0.009092	0.903448	0.574250	0.017470	0.131226	-0.040772	-0.990514	-0.959242	-0.257459	-0.116486	-0.250268	0.965429	-0.072895
19713	-9.699870	-1.163650	-0.772284	-0.014992	-0.006640	-0.008460	0.896836	0.582515	0.018044	0.131283	-0.040688	-0.990510	-0.959195	-0.257607	-0.116550	-0.250420	0.965393	-0.072847
19714	-9.717100	-1.209750	-0.737264	-0.012453	-0.002847	-0.005629	0.895389	0.581409	0.021431	0.131149	-0.040741	-0.990525	-0.959241	-0.257495	-0.116415	-0.250313	0.965420	-0.072851
19715	-9.717950	-1.198110	-0.790354	0.003923	-0.000888	-0.005068	0.905439	0.576317	0.027801	0.131186	-0.040720	-0.990521	-0.959246	-0.257458	-0.116460	-0.250275	0.965431	-0.072835
19716	-9.685020	-1.102010	-0.835768	0.012486	-0.003787	-0.005104	0.897376	0.573749	0.023833	0.131122	-0.040841	-0.990525	-0.959292	-0.257322	-0.116377	-0.250131	0.965462	-0.072919
19717	-9.707160	-1.131290	-0.729436	0.015200	-0.003193	-0.004799	0.895426	0.576589	0.026144	0.131150	-0.040798	-0.990523	-0.959325	-0.257176	-0.116427	-0.249988	0.965503	-0.072867
19718	-9.715510	-1.085070	-0.740745	0.015025	0.000007	-0.002273	0.897118	0.579601	0.024050	0.131080	-0.040964	-0.990525	-0.959380	-0.257016	-0.116330	-0.249815	0.965539	-0.072989
19719	-9.721300	-1.056660	-0.722574	0.006810	-0.003492	-0.007288	0.902242	0.578230	0.021781	0.131131	-0.040913	-0.990520	-0.959389	-0.256952	-0.116397	-0.249754	0.965558	-0.072946
19720	-9.720320	-1.069610	-0.668982	0.001136	-0.003200	-0.009474	0.896144	0.576738	0.021995	0.131109	-0.041001	-0.990520	-0.959413	-0.256879	-0.116358	-0.249673	0.965573	-0.073016
19721	-9.735150	-1.115050	-0.734535	-0.001421	-0.003674	-0.006937	0.898335	0.584189	0.025434	0.131156	-0.040950	-0.990516	-0.959402	-0.256894	-0.116416	-0.249691	0.965572	-0.072980
19722	-9.711300	-1.092800	-0.863675	-0.000056	-0.005036	-0.009468	0.894933	0.576667	0.023708	0.131196	-0.040990	-0.990509	-0.959406	-0.256868	-0.116447	-0.249657	0.965577	-0.073026
19723	-9.730130	-1.133490	-0.804729	-0.002612	-0.005511	-0.006931	0.899810	0.582219	0.025846	0.131239	-0.040920	-0.990506	-0.959391	-0.256895	-0.116504	-0.249689	0.965573	-0.072973
19724	-9.750600	-1.168390	-0.721972	0.008578	-0.006212	-0.005399	0.895694	0.572401	0.026726	0.131228	-0.040997	-0.990504	-0.959416	-0.256814	-0.116480	-0.249601	0.965591	-0.073034
19725	-9.756410	-1.139960	-0.703574	0.015109	-0.001587	-0.003536	0.896387	0.579899	0.022113	0.131249	-0.040975	-0.990502	-0.959450	-0.256669	-0.116517	-0.249457	0.965630	-0.073001
19726	-9.769000	-1.070480	-0.720534	0.008577	-0.006211	-0.005398	0.901048	0.573538	0.022595	0.131200	-0.041052	-0.990506	-0.959485	-0.256567	-0.116458	-0.249350	0.965654	-0.073051
19727	-9.770590	-1.065530	-0.696277	0.006806	-0.003489	-0.007286	0.894428	0.582345	0.021723	0.131252	-0.041003	-0.990501	-0.959493	-0.256504	-0.116525	-0.249290	0.965673	-0.073008
19728	-9.750750	-1.038550	-0.701009	0.004179	-0.005682	-0.008851	0.903467	0.581140	0.021886	0.131215	-0.041040	-0.990504	-0.959531	-0.256381	-0.116489	-0.249165	0.965704	-0.073020
19729	-9.727670	-1.022760	-0.753028	-0.001090	-0.006753	-0.006618	0.896415	0.575415	0.024150	0.131252	-0.040960	-0.990502	-0.959521	-0.256394	-0.116544	-0.249185	0.965704	-0.072955
19730	-9.715000	-1.093430	-0.735092	-0.008375	-0.003622	-0.007852	0.894699	0.576195	0.022720	0.131175	-0.041049	-0.990509	-0.959522	-0.256433	-0.116444	-0.249219	0.965690	-0.073026
19731	-9.714000	-1.106200	-0.681549	-0.004138	-0.004268	-0.007238	0.895663	0.582033	0.023418	0.131223	-0.040993	-0.990505	-0.959504	-0.256475	-0.116502	-0.249264	0.965681	-0.072988
19732	-9.736300	-1.117100	-0.705394	-0.002774	-0.005628	-0.009767	0.892488	0.577999	0.019863	0.131260	-0.041003	-0.990500	-0.959503	-0.256464	-0.116535	-0.249249	0.965684	-0.073006
19733	-9.730390	-1.146920	-0.722861	0.002567	-0.002838	-0.007899	0.905436	0.581298	0.024084	0.131318	-0.040959	-0.990494	-0.959500	-0.256442	-0.116604	-0.249229	0.965691	-0.072976
19734	-9.714760	-1.096610	-0.733557	0.005367	-0.003841	-0.008857	0.905212	0.576841	0.025633	0.131282	-0.040996	-0.990497	-0.959538	-0.256318	-0.116570	-0.249103	0.965723	-0.072987
19735	-9.719910	-1.061910	-0.792150	-0.001178	-0.005152	-0.005355	0.901291	0.582693	0.025620	0.131310	-0.040936	-0.990496	-0.959529	-0.256331	-0.116611	-0.249122	0.965722	-0.072938
19736	-9.766870	-1.083690	-0.739664	-0.001586	-0.003790	-0.009773	0.890548	0.589104	0.029806	0.131237	-0.041070	-0.990500	-0.959519	-0.256421	-0.116500	-0.249200	0.965692	-0.073059
19737	-9.783020	-1.141970	-0.651323	-0.001264	-0.003553	-0.004094	0.893713	0.581111	0.021441	0.131256	-0.041030	-0.990499	-0.959512	-0.256435	-0.116527	-0.249217	0.965690	-0.073027
19738	-9.726530	-1.180280	-0.638157	0.010793	-0.002647	-0.008251	0.892991	0.574347	0.019242	0.131490	-0.041030	-0.990468	-0.959487	-0.256425	-0.116755	-0.249190	0.965693	-0.073085
19739	-9.750200	-1.046680	-0.696510	0.009430	-0.001287	-0.005721	0.898122	0.578861	0.023051	0.131534	-0.041008	-0.990463	-0.959503	-0.256337	-0.116809	-0.249103	0.965717	-0.073065
19740	-9.696320	-1.067290	-0.712959	0.001288	-0.003076	-0.006629	0.902506	0.580407	0.021136	0.131450	-0.041028	-0.990473	-0.959548	-0.256205	-0.116734	-0.248975	0.965751	-0.073046
19741	-9.721890	-1.066810	-0.689523	0.001288	-0.003075	-0.006629	0.900559	0.581784	0.023393	0.131497	-0.040986	-0.990469	-0.959543	-0.256196	-0.116790	-0.248967	0.965756	-0.073017
19742	-9.690990	-1.104060	-0.653446	0.004943	0.000839	-0.007912	0.898102	0.580011	0.018208	0.131431	-0.041070	-0.990474	-0.959577	-0.256106	-0.116711	-0.248873	0.965776	-0.073070
19743	-9.661030	-1.129560	-0.670551	0.009192	-0.003119	-0.012659	0.896675	0.577054	0.025435	0.131535	-0.041012	-0.990463	-0.959584	-0.256023	-0.116833	-0.248789	0.965800	-0.073031
19744	-9.726830	-1.034310	-0.748078	0.006218	0.001079	-0.009179	0.899822	0.581597	0.021678	0.131497	-0.041066	-0.990466	-0.959624	-0.255893	-0.116792	-0.248657	0.965832	-0.073057
19745	-9.700120	-1.048570	-0.717825	0.000963	-0.003310	-0.012305	0.896675	0.576356	0.024430	0.131596	-0.041008	-0.990455	-0.959611	-0.255890	-0.116903	-0.248653	0.965836	-0.073026
19746	-9.739490	-1.105390	-0.707288	0.001731	0.003204	-0.011370	0.896909	0.573354	0.019676	0.131580	-0.041108	-0.990453	-0.959624	-0.255860	-0.116865	-0.248613	0.965839	-0.073114
19747	-9.750590	-1.181020	-0.690545	0.011481	0.002159	-0.011410	0.900817	0.574540	0.020924	0.131683	-0.041105	-0.990439	-0.959639	-0.255755	-0.116974	-0.248501	0.965867	-0.073125
19748	-9.764820	-1.106540	-0.684459	0.015631	0.003115	-0.009536	0.898114	0.581590	0.021680	0.131490	-0.041199	-0.990461	-0.959741	-0.255457	-0.116786	-0.248209	0.965942	-0.073131
19749	-9.751830	-1.038750	-0.725194	0.007491	0.001323	-0.010444	0.887603	0.585020	0.020627	0.131580	-0.041191	-0.990449	-0.959748	-0.255389	-0.116880	-0.248136	0.965960	-0.073137
19750	-9.743210	-1.086420	-0.713580	-0.003449	0.000529	-0.010396	0.905004	0.570180	0.026853	0.131743	-0.041145	-0.990430	-0.959736	-0.255354	-0.117053	-0.248094	0.965972	-0.073129
19751	-9.742100	-1.099400	-0.660593	-0.002347	0.003965	-0.009143	0.904034	0.571788	0.029603	0.131829	-0.041164	-0.990417	-0.959720	-0.255380	-0.117129	-0.248111	0.965964	-0.073173
19752	-9.731170	-1.146340	-0.749874	-0.002423	0.002251	-0.013241	0.893015	0.582520	0.029306	0.131535	-0.041469	-0.990444	-0.959708	-0.255596	-0.116751	-0.248311	0.965894	-0.073418
19753	-9.717270	-1.229230	-0.679504	-0.007699	0.004485	-0.005651	0.895932	0.578830	0.023542	0.131583	-0.041507	-0.990436	-0.959684	-0.255674	-0.116783	-0.248381	0.965872	-0.073476
19754	-9.697420	-1.202160	-0.685062	0.010202	0.001926	-0.010139	0.894207	0.583252	0.022732	0.131703	-0.041600	-0.990416	-0.959662	-0.255715	-0.116873	-0.248403	0.965857	-0.073601
19755	-9.666420	-1.239560	-0.649320	0.010027	0.005122	-0.007618	0.895922	0.583683	0.024451	0.131773	-0.041640	-0.990405	-0.959678	-0.255624	-0.116938	-0.248302	0.965879	-0.073645
19756	-9.663680	-1.257940	-0.620217	0.025027	0.008477	-0.004529	0.896641	0.581172	0.019715	0.131890	-0.041724	-0.990386	-0.959723	-0.255406	-0.117046	-0.248067	0.965933	-0.073729
19757	-9.658600	-1.136760	-0.750044	0.026298	0.008721	-0.005794	0.894945	0.572710	0.017214	0.131953	-0.041803	-0.990374	-0.959781	-0.255158	-0.117107	-0.247806	0.965995	-0.073791
19758	-9.645630	-1.068790	-0.791309	0.017910	0.008405	-0.008282	0.895651	0.577464	0.014209	0.131875	-0.041831	-0.990383	-0.959895	-0.254755	-0.117055	-0.247408	0.966100	-0.073749
19759	-9.681290	-1.016270	-0.756802	0.008498	0.006365	-0.007927	0.899110	0.583302	0.028577	0.131951	-0.041881	-0.990371	-0.959907	-0.254678	-0.117123	-0.247320	0.966119	-0.073807
19760	-9.750470	-1.048450	-0.729585	0.005536	0.007245	-0.009809	0.897904	0.575058	0.026814	0.131965	-0.041948	-0.990366	-0.959941	-0.254547	-0.117129	-0.247182	0.966150	-0.073859
19761	-9.748680	-1.055090	-0.753773	0.005873	0.004167	-0.009489	0.891768	0.581527	0.023167	0.132050	-0.041973	-0.990354	-0.959945	-0.254496	-0.117210	-0.247122	0.966163	-0.073898
19762	-9.727190	-1.033940	-0.782997	0.003249	0.001969	-0.011052	0.895935	0.581153	0.027044	0.132086	-0.042069	-0.990345	-0.959933	-0.254537	-0.117217	-0.247148	0.966148	-0.074004
19763	-9.780930	-1.015250	-0.766530	-0.005136	0.001647	-0.013544	0.898327	0.577781	0.012496	0.132204	-0.042059	-0.990330	-0.959904	-0.254594	-0.117329	-0.247198	0.966133	-0.074031
19764	-9.785050	-0.993361	-0.772604	-0.005300	0.001530	-0.016380	0.895671	0.582035	0.022920	0.132210	-0.042031	-0.990330	-0.959929	-0.254489	-0.117351	-0.247096	0.966162	-0.073992
19765	-9.801950	-1.040240	-0.738057	-0.005226	0.003247	-0.012283	0.900591	0.576008	0.027809	0.132319	-0.042039	-0.990315	-0.959902	-0.254546	-0.117450	-0.247143	0.966146	-0.074035
19766	-9.763980	-1.118900	-0.667012	-0.002679	0.003732	-0.014815	0.897387	0.582449	0.025124	0.132320	-0.042179	-0.990309	-0.959877	-0.254658	-0.117408	-0.247238	0.966111	-0.074183
19767	-9.753570	-1.172580	-0.679233	0.000371	0.001255	-0.014191	0.892767	0.576084	0.025153	0.132441	-0.042165	-0.990294	-0.959861	-0.254663	-0.117528	-0.247235	0.966110	-0.074200
19768	-9.713340	-1.111830	-0.766918	0.000282	0.002854	-0.012931	0.896140	0.580056	0.016977	0.132488	-0.042262	-0.990283	-0.959841	-0.254731	-0.117544	-0.247288	0.966088	-0.074314
19769	-9.744770	-1.083050	-0.726218	-0.007853	0.001049	-0.013845	0.892942	0.585025	0.014482	0.132605	-0.042248	-0.990268	-0.959805	-0.254815	-0.117655	-0.247365	0.966066	-0.074340
19770	-9.736020	-1.130980	-0.714592	0.004606	0.000622	-0.013573	0.894951	0.580255	0.024803	0.132658	-0.042068	-0.990269	-0.959892	-0.254429	-0.117781	-0.246999	0.966176	-0.074133
19771	-9.740150	-1.108980	-0.720611	0.002991	0.003459	-0.012625	0.899830	0.581255	0.024574	0.132770	-0.042077	-0.990253	-0.959885	-0.254407	-0.117888	-0.246967	0.966181	-0.074167
19772	-9.717670	-1.100020	-0.696672	-0.003958	0.003493	-0.013545	0.896887	0.580648	0.020898	0.132794	-0.042180	-0.990246	-0.959861	-0.254504	-0.117878	-0.247049	0.966151	-0.074284
19773	-9.709580	-1.154270	-0.608389	-0.003959	0.003494	-0.013545	0.895168	0.580968	0.018717	0.132914	-0.042189	-0.990229	-0.959835	-0.254549	-0.117989	-0.247084	0.966139	-0.074327
19774	-9.700080	-1.195830	-0.674154	-0.001590	0.007177	-0.013558	0.890068	0.581899	0.026344	0.132924	-0.042192	-0.990228	-0.959871	-0.254403	-0.118010	-0.246938	0.966178	-0.074315
19775	-9.683840	-1.139620	-0.762667	0.005788	0.002469	-0.013576	0.901273	0.580961	0.019421	0.133041	-0.042189	-0.990212	-0.959870	-0.254354	-0.118128	-0.246880	0.966191	-0.074336
19776	-9.690630	-1.099970	-0.798325	0.002987	0.003464	-0.012622	0.891265	0.581629	0.020463	0.133085	-0.042225	-0.990205	-0.959879	-0.254300	-0.118165	-0.246820	0.966203	-0.074375
19777	-9.698110	-1.066620	-0.757246	-0.000066	0.005941	-0.013244	0.893476	0.578891	0.022062	0.133208	-0.042257	-0.990187	-0.959864	-0.254307	-0.118276	-0.246814	0.966200	-0.074436
19778	-9.749220	-1.065780	-0.711568	0.001459	0.004704	-0.012932	0.896903	0.577629	0.023467	0.133273	-0.042258	-0.990178	-0.959885	-0.254194	-0.118348	-0.246696	0.966230	-0.074440
19779	-9.772040	-1.083730	-0.659322	-0.005401	0.003138	-0.015112	0.893739	0.577051	0.025655	0.133406	-0.042257	-0.990160	-0.959854	-0.254253	-0.118472	-0.246745	0.966214	-0.074479
19780	-9.727230	-1.184940	-0.683103	-0.004054	0.005096	-0.012282	0.892508	0.575937	0.022687	0.133335	-0.042389	-0.990164	-0.959845	-0.254337	-0.118364	-0.246818	0.966186	-0.074599
19781	-9.721040	-1.215050	-0.701488	-0.001343	0.005700	-0.011977	0.900292	0.579772	0.018641	0.133443	-0.042422	-0.990148	-0.959828	-0.254355	-0.118460	-0.246824	0.966180	-0.074660
19782	-9.693550	-1.222700	-0.748934	0.001442	0.008017	-0.007577	0.892750	0.583326	0.027841	0.133287	-0.042492	-0.990166	-0.959889	-0.254200	-0.118303	-0.246673	0.966218	-0.074670
19783	-9.695070	-1.217850	-0.726019	0.005426	0.008866	-0.008536	0.895904	0.578977	0.020097	0.133368	-0.042564	-0.990152	-0.959894	-0.254151	-0.118367	-0.246610	0.966227	-0.074753
19784	-9.708870	-1.136980	-0.797318	0.014169	0.002809	-0.011077	0.904212	0.578460	0.021507	0.133414	-0.042611	-0.990144	-0.959922	-0.254026	-0.118410	-0.246477	0.966258	-0.074794
19785	-9.736050	-1.131390	-0.750894	0.000092	0.006061	-0.010405	0.897389	0.575695	0.023145	0.133506	-0.042652	-0.990130	-0.959911	-0.254030	-0.118488	-0.246469	0.966255	-0.074856
19786	-9.733250	-1.149910	-0.722010	0.001439	0.008019	-0.007576	0.891774	0.582823	0.028315	0.133247	-0.042799	-0.990158	-0.959968	-0.253944	-0.118208	-0.246386	0.966272	-0.074923
19787	-9.726130	-1.191580	-0.687300	0.008387	0.007992	-0.006652	0.895401	0.585271	0.021793	0.133305	-0.042868	-0.990148	-0.959984	-0.253866	-0.118253	-0.246296	0.966289	-0.074994
19788	-9.696950	-1.204510	-0.758507	0.007024	0.009344	-0.004129	0.900513	0.585883	0.018865	0.133415	-0.042988	-0.990128	-0.959977	-0.253853	-0.118331	-0.246260	0.966287	-0.075135
19789	-9.687220	-1.263510	-0.694185	0.010078	0.006870	-0.003504	0.901777	0.580018	0.025732	0.133440	-0.043055	-0.990121	-0.960001	-0.253757	-0.118347	-0.246155	0.966309	-0.075194
19790	-9.687120	-1.263870	-0.694964	0.012352	0.012154	-0.002257	0.901267	0.585910	0.024974	0.133312	-0.043194	-0.990132	-0.960072	-0.253554	-0.118204	-0.245947	0.966356	-0.075271
19791	-9.723090	-1.210720	-0.660778	0.014387	0.007953	0.001209	0.896889	0.576465	0.022452	0.133294	-0.043283	-0.990131	-0.960112	-0.253415	-0.118175	-0.245799	0.966389	-0.075335
19792	-9.713030	-1.124300	-0.731612	0.017186	0.006962	0.000258	0.892485	0.572239	0.017433	0.133148	-0.043408	-0.990145	-0.960180	-0.253230	-0.118017	-0.245612	0.966432	-0.075396
19793	-9.712960	-1.124440	-0.732355	0.008366	0.011306	-0.001299	0.899575	0.574533	0.022132	0.133160	-0.043523	-0.990138	-0.960203	-0.253150	-0.118007	-0.245518	0.966447	-0.075501
19794	-9.717220	-1.101200	-0.739257	0.008529	0.011422	0.001537	0.890804	0.576954	0.028857	0.132824	-0.043644	-0.990178	-0.960316	-0.252875	-0.117673	-0.245256	0.966514	-0.075500
19795	-9.732440	-1.152380	-0.729029	0.008619	0.009825	0.000279	0.891994	0.576513	0.021021	0.132815	-0.043749	-0.990175	-0.960342	-0.252791	-0.117644	-0.245160	0.966531	-0.075588
19796	-9.717080	-1.101270	-0.740991	0.011419	0.008834	-0.000671	0.905917	0.579810	0.025485	0.132755	-0.043904	-0.990176	-0.960368	-0.252734	-0.117553	-0.245090	0.966539	-0.075715
19797	-9.719600	-1.083960	-0.771340	0.004310	0.008742	-0.004434	0.888297	0.582975	0.017856	0.132788	-0.043987	-0.990168	-0.960377	-0.252693	-0.117567	-0.245038	0.966546	-0.075799
19798	-9.711650	-1.137110	-0.683413	0.007181	0.009466	-0.001291	0.897864	0.574730	0.023627	0.132714	-0.044059	-0.990175	-0.960435	-0.252509	-0.117492	-0.244851	0.966591	-0.075828
19799	-9.730340	-1.159160	-0.755925	0.008290	0.009596	-0.005388	0.898866	0.576646	0.031511	0.132757	-0.044148	-0.990165	-0.960452	-0.252431	-0.117518	-0.244760	0.966607	-0.075914
19800	-9.711490	-1.119720	-0.815357	0.002944	0.010097	-0.001912	0.890326	0.578704	0.034800	0.132555	-0.044422	-0.990180	-0.960450	-0.252566	-0.117244	-0.244877	0.966559	-0.076144
19801	-9.710530	-1.131830	-0.762720	0.000927	0.003327	-0.001582	0.894910	0.586576	0.027009	0.132544	-0.044462	-0.990179	-0.960455	-0.252557	-0.117225	-0.244865	0.966560	-0.076179
19802	-9.731840	-1.154100	-0.734238	0.000744	0.006525	0.000934	0.893251	0.579447	0.034822	0.132673	-0.044688	-0.990152	-0.960370	-0.252857	-0.117270	-0.245126	0.966471	-0.076464
19803	-9.727450	-1.177370	-0.729031	0.000489	0.008008	-0.000643	0.896891	0.577034	0.027637	0.132667	-0.044777	-0.990149	-0.960374	-0.252854	-0.117243	-0.245114	0.966468	-0.076548
19804	-9.757440	-1.153000	-0.712543	0.004979	0.005896	0.001557	0.902695	0.581818	0.017531	0.132604	-0.045051	-0.990145	-0.960329	-0.253095	-0.117095	-0.245325	0.966392	-0.076826
19805	-9.756860	-1.008130	-0.848499	0.004816	0.005780	-0.001278	0.892977	0.571600	0.022332	0.132598	-0.045120	-0.990142	-0.960343	-0.253052	-0.117076	-0.245275	0.966400	-0.076885
19806	-9.730230	-1.021290	-0.818819	-0.002128	0.005802	-0.002210	0.892948	0.577564	0.019620	0.132364	-0.045131	-0.990173	-0.960432	-0.252812	-0.116865	-0.245053	0.966462	-0.076808
19807	-9.739390	-1.119610	-0.695838	-0.007474	0.006302	0.001265	0.905148	0.584553	0.023250	0.132333	-0.045210	-0.990174	-0.960419	-0.252886	-0.116810	-0.245120	0.966439	-0.076885
19808	-9.755530	-1.158870	-0.738300	0.003981	0.000853	-0.000954	0.899307	0.579855	0.024328	0.132195	-0.045179	-0.990194	-0.960488	-0.252671	-0.116701	-0.244921	0.966497	-0.076796
19809	-9.701500	-1.178610	-0.755111	0.000742	0.006526	0.000935	0.893676	0.584014	0.023774	0.132167	-0.045259	-0.990194	-0.960496	-0.252665	-0.116654	-0.244908	0.966495	-0.076865
19810	-9.706670	-1.143380	-0.814767	0.002362	0.003690	-0.000009	0.903724	0.576555	0.028105	0.132140	-0.045297	-0.990196	-0.960518	-0.252595	-0.116624	-0.244836	0.966511	-0.076886
19811	-9.690480	-1.104110	-0.773004	0.002362	0.003690	-0.000009	0.903463	0.578126	0.025235	0.132114	-0.045347	-0.990197	-0.960528	-0.252573	-0.116589	-0.244810	0.966515	-0.076925
19812	-9.721340	-1.067880	-0.809554	0.000834	0.004927	-0.000323	0.891480	0.581127	0.022466	0.131835	-0.045541	-0.990225	-0.960556	-0.252613	-0.116267	-0.244849	0.966495	-0.077048
19813	-9.719590	-1.091800	-0.703408	0.000926	0.003328	-0.001581	0.903219	0.579547	0.026517	0.131821	-0.045585	-0.990225	-0.960561	-0.252606	-0.116244	-0.244838	0.966495	-0.077086
19814	-9.718680	-1.103890	-0.650589	-0.002128	0.005803	-0.002209	0.895387	0.579938	0.021925	0.131772	-0.045660	-0.990228	-0.960574	-0.252588	-0.116179	-0.244814	0.966496	-0.077144
19815	-9.737360	-1.125850	-0.722757	-0.007452	0.002988	-0.004086	0.897644	0.573925	0.032936	0.131781	-0.045694	-0.990225	-0.960555	-0.252663	-0.116174	-0.244885	0.966475	-0.077188
19816	-9.727750	-1.166430	-0.788089	0.003981	0.000854	-0.000953	0.886851	0.580774	0.025171	0.131656	-0.045813	-0.990236	-0.960561	-0.252711	-0.116019	-0.244928	0.966457	-0.077277
19817	-9.678070	-1.162870	-0.810628	-0.001620	0.002837	0.000944	0.898844	0.576257	0.029360	0.131616	-0.045859	-0.990239	-0.960563	-0.252728	-0.115967	-0.244943	0.966450	-0.077314
19818	-9.727710	-1.166390	-0.788596	0.007777	0.004906	0.000611	0.899582	0.578819	0.032874	0.131613	-0.045978	-0.990234	-0.960565	-0.252734	-0.115935	-0.244935	0.966443	-0.077428
19819	-9.748520	-1.061850	-0.765229	0.012012	0.004277	0.001235	0.894444	0.575567	0.027894	0.131574	-0.046039	-0.990237	-0.960600	-0.252619	-0.115891	-0.244817	0.966470	-0.077463
19820	-9.754580	-1.032860	-0.747712	0.003888	0.002453	0.000306	0.890267	0.577704	0.022618	0.131473	-0.046241	-0.990241	-0.960577	-0.252781	-0.115730	-0.244962	0.966418	-0.077652
19821	-9.773340	-1.072800	-0.689303	0.005254	0.001100	-0.002215	0.896144	0.578265	0.027748	0.131458	-0.046265	-0.990242	-0.960591	-0.252735	-0.115714	-0.244915	0.966429	-0.077666
19822	-9.741520	-1.103000	-0.730331	-0.001874	0.004320	-0.000633	0.898562	0.573958	0.018790	0.131429	-0.046321	-0.990243	-0.960598	-0.252726	-0.115672	-0.244902	0.966428	-0.077712
19823	-9.701940	-1.185860	-0.682616	-0.001527	0.001237	-0.000314	0.896132	0.581464	0.027139	0.131396	-0.046351	-0.990246	-0.960598	-0.252745	-0.115632	-0.244920	0.966422	-0.077735
19824	-9.716290	-1.230820	-0.748932	0.003101	0.010218	0.000927	0.907849	0.573411	0.021183	0.131255	-0.046438	-0.990260	-0.960661	-0.252574	-0.115487	-0.244751	0.966463	-0.077763
19825	-9.716550	-1.092050	-0.807994	0.009557	0.002187	0.002503	0.897093	0.572554	0.017047	0.131197	-0.046484	-0.990266	-0.960692	-0.252483	-0.115427	-0.244660	0.966484	-0.077782
19826	-9.723470	-1.051150	-0.843519	0.005508	-0.000383	-0.000637	0.903661	0.583969	0.019395	0.130782	-0.046443	-0.990323	-0.960837	-0.252096	-0.115065	-0.244313	0.966587	-0.077594
19827	-9.747510	-1.073860	-0.714083	0.003795	0.004054	0.001564	0.898061	0.580719	0.021013	0.130734	-0.046503	-0.990326	-0.960853	-0.252060	-0.115007	-0.244274	0.966593	-0.077636
19828	-9.731920	-1.161160	-0.667094	0.009209	0.005271	0.002185	0.898317	0.583696	0.026500	0.130627	-0.046464	-0.990342	-0.960950	-0.251720	-0.114940	-0.243948	0.966684	-0.077531
19829	-9.731920	-1.160920	-0.667455	0.014877	0.005006	0.004384	0.890504	0.580826	0.024233	0.130554	-0.046539	-0.990348	-0.960998	-0.251575	-0.114863	-0.243801	0.966718	-0.077568
19830	-9.715670	-1.103470	-0.756016	0.004813	0.005783	-0.001275	0.900285	0.576177	0.025248	0.130663	-0.046581	-0.990332	-0.960998	-0.251528	-0.114962	-0.243742	0.966728	-0.077630
19831	-9.703840	-1.040720	-0.720489	-0.004607	0.007029	0.004405	0.896122	0.572947	0.019778	0.130597	-0.046676	-0.990336	-0.960998	-0.251572	-0.114871	-0.243779	0.966712	-0.077710
19832	-9.710720	-0.999710	-0.756529	-0.001781	0.002720	-0.001892	0.901001	0.571090	0.017495	0.130388	-0.046700	-0.990363	-0.961050	-0.251461	-0.114671	-0.243683	0.966740	-0.077669
19833	-9.743080	-1.096290	-0.710757	-0.001460	0.002955	0.003778	0.895183	0.576403	0.032131	0.130315	-0.046754	-0.990370	-0.961057	-0.251474	-0.114587	-0.243695	0.966734	-0.077704
19834	-9.711280	-1.126170	-0.751745	0.001180	0.001846	-0.000004	0.895899	0.574649	0.026694	0.130094	-0.046830	-0.990395	-0.961094	-0.251436	-0.114357	-0.243666	0.966740	-0.077718
19835	-9.712060	-1.114320	-0.805325	-0.001875	0.004320	-0.000634	0.894655	0.578178	0.023656	0.130066	-0.046886	-0.990396	-0.961095	-0.251455	-0.114314	-0.243680	0.966733	-0.077767
19836	-9.687260	-1.121610	-0.751670	-0.001527	0.001237	-0.000315	0.899787	0.583618	0.028968	0.129990	-0.046924	-0.990404	-0.961104	-0.251458	-0.114231	-0.243685	0.966730	-0.077786
19837	-9.737730	-1.113340	-0.782807	0.010574	0.003918	-0.000332	0.890282	0.569888	0.022889	0.129958	-0.046977	-0.990406	-0.961134	-0.251357	-0.114195	-0.243581	0.966754	-0.077817
19838	-9.726730	-1.038840	-0.800224	0.013441	0.004645	0.002815	0.893701	0.572973	0.025680	0.129885	-0.047067	-0.990411	-0.961174	-0.251245	-0.114111	-0.243465	0.966779	-0.077872
19839	-9.713150	-0.981896	-0.788282	-0.002222	0.007404	-0.000954	0.892469	0.575437	0.025045	0.129867	-0.047152	-0.990410	-0.961173	-0.251267	-0.114071	-0.243479	0.966769	-0.077953
19840	-9.753340	-1.044110	-0.701002	-0.001246	-0.003564	-0.004089	0.893914	0.578249	0.021724	0.129806	-0.047142	-0.990418	-0.961176	-0.251281	-0.114013	-0.243498	0.966765	-0.077930
19841	-9.771970	-1.066150	-0.772785	-0.007542	0.004585	-0.002834	0.898353	0.576651	0.032402	0.129799	-0.047196	-0.990416	-0.961159	-0.251356	-0.113987	-0.243567	0.966743	-0.077989
19842	-9.752050	-1.177060	-0.719757	-0.005668	0.000265	-0.002200	0.900282	0.576879	0.026298	0.129772	-0.047253	-0.990417	-0.961135	-0.251472	-0.113938	-0.243678	0.966710	-0.078051
19843	-9.730620	-1.154960	-0.748875	-0.003055	0.002474	-0.000630	0.898785	0.576465	0.017497	0.129739	-0.047293	-0.990420	-0.961132	-0.251503	-0.113894	-0.243707	0.966700	-0.078084
19844	-9.720430	-1.068630	-0.819481	-0.001527	0.001237	-0.000315	0.895165	0.577490	0.029280	0.129568	-0.047265	-0.990443	-0.961192	-0.251340	-0.113747	-0.243562	0.966744	-0.077997
19845	-9.696450	-1.063970	-0.819009	-0.004328	0.002229	0.000631	0.897341	0.573164	0.020811	0.129521	-0.047305	-0.990448	-0.961188	-0.251382	-0.113689	-0.243603	0.966731	-0.078028
19846	-9.719600	-1.080440	-0.766589	-0.004234	0.000629	-0.000627	0.903198	0.580575	0.025705	0.129413	-0.047337	-0.990460	-0.961198	-0.251393	-0.113575	-0.243619	0.966727	-0.078033
19847	-9.743560	-1.085090	-0.767399	0.001180	0.001846	-0.000004	0.904417	0.575842	0.021621	0.129371	-0.047371	-0.990464	-0.961207	-0.251382	-0.113526	-0.243607	0.966728	-0.078055
19848	-9.701720	-1.047020	-0.748121	0.007223	-0.004821	-0.002836	0.901000	0.579392	0.024455	0.129195	-0.047327	-0.990489	-0.961272	-0.251201	-0.113381	-0.243446	0.966777	-0.077948
19849	-9.730000	-1.028620	-0.754577	-0.004488	0.002112	-0.002203	0.898082	0.579268	0.027641	0.129174	-0.047358	-0.990490	-0.961264	-0.251245	-0.113349	-0.243488	0.966764	-0.077978
19850	-9.699100	-1.065160	-0.718467	-0.004301	-0.001089	-0.004719	0.903924	0.583259	0.025812	0.129162	-0.047369	-0.990491	-0.961254	-0.251290	-0.113332	-0.243532	0.966752	-0.077991
19851	-9.713380	-1.110610	-0.784325	-0.004649	0.001995	-0.005038	0.902692	0.581691	0.021853	0.129168	-0.047392	-0.990490	-0.961242	-0.251337	-0.113328	-0.243576	0.966739	-0.078020
19852	-9.719430	-1.082000	-0.766583	-0.006754	-0.003181	-0.003454	0.901736	0.579836	0.025701	0.129131	-0.047331	-0.990497	-0.961255	-0.251296	-0.113311	-0.243545	0.966752	-0.077947
19853	-9.739030	-1.110210	-0.761261	-0.004395	0.000512	-0.003461	0.903949	0.571383	0.023187	0.129119	-0.047343	-0.990498	-0.961246	-0.251340	-0.113292	-0.243588	0.966740	-0.077961
19854	-9.735650	-1.139830	-0.678353	-0.001180	-0.001846	0.000004	0.894409	0.577236	0.022710	0.128889	-0.047363	-0.990527	-0.961286	-0.251285	-0.113069	-0.243549	0.966754	-0.077918
19855	-9.716790	-1.100170	-0.737041	0.003378	0.005422	-0.002845	0.894192	0.573643	0.027469	0.128882	-0.047424	-0.990525	-0.961297	-0.251253	-0.113049	-0.243511	0.966759	-0.077971
19856	-9.714970	-1.106100	-0.761132	0.003632	0.003939	-0.001269	0.900828	0.565642	0.033017	0.128847	-0.047469	-0.990528	-0.961316	-0.251198	-0.113009	-0.243454	0.966771	-0.077999
19857	-9.701950	-1.175960	-0.743518	-0.001273	-0.000246	0.001262	0.895407	0.572281	0.024734	0.128786	-0.047485	-0.990535	-0.961321	-0.251209	-0.112944	-0.243468	0.966767	-0.078001
19858	-9.708050	-1.147100	-0.725711	0.005348	-0.000499	-0.003470	0.899291	0.581528	0.026037	0.128559	-0.047625	-0.990558	-0.961328	-0.251297	-0.112683	-0.243558	0.966738	-0.078090
19859	-9.717500	-1.088760	-0.790812	0.004141	0.000972	0.001885	0.896376	0.574958	0.025079	0.128493	-0.047657	-0.990565	-0.961347	-0.251256	-0.112615	-0.243519	0.966747	-0.078099
19860	-9.751890	-1.041110	-0.779800	0.005160	0.002702	-0.000953	0.898075	0.577194	0.024181	0.128477	-0.047690	-0.990565	-0.961368	-0.251186	-0.112597	-0.243446	0.966763	-0.078119
19861	-9.781950	-1.016750	-0.762862	0.004141	0.000972	0.001885	0.899045	0.576790	0.021969	0.128411	-0.047721	-0.990572	-0.961386	-0.251145	-0.112529	-0.243407	0.966772	-0.078128
19862	-9.772510	-1.074970	-0.697701	0.004395	-0.000511	0.003461	0.895164	0.577025	0.028593	0.128281	-0.047693	-0.990590	-0.961442	-0.250981	-0.112422	-0.243257	0.966816	-0.078050
19863	-9.763060	-1.133260	-0.632593	0.001179	0.001846	-0.000004	0.907870	0.571721	0.027621	0.128235	-0.047728	-0.990595	-0.961451	-0.250969	-0.112371	-0.243245	0.966818	-0.078071
19864	-9.699410	-1.192950	-0.714605	-0.004544	0.008747	0.008498	0.895875	0.571974	0.019865	0.128006	-0.047940	-0.990614	-0.961451	-0.251093	-0.112087	-0.243363	0.966775	-0.078233
19865	-9.703770	-1.169170	-0.720997	0.001433	0.000363	0.001573	0.900276	0.573822	0.023096	0.127941	-0.047964	-0.990621	-0.961463	-0.251079	-0.112019	-0.243351	0.966778	-0.078239
19866	-9.716790	-1.098860	-0.739023	-0.004103	0.004064	0.007559	0.900250	0.579054	0.020363	0.127694	-0.047974	-0.990653	-0.961527	-0.250938	-0.111788	-0.243229	0.966814	-0.078172
19867	-9.748660	-1.068110	-0.698816	-0.001650	0.006156	0.006294	0.901261	0.575873	0.027334	0.127597	-0.048066	-0.990661	-0.961537	-0.250950	-0.111670	-0.243239	0.966806	-0.078238
19868	-9.744360	-1.090710	-0.693581	-0.001745	0.007757	0.007552	0.894416	0.576161	0.025667	0.127454	-0.048139	-0.990676	-0.961576	-0.250868	-0.111520	-0.243161	0.966823	-0.078263
19869	-9.758920	-1.153110	-0.629987	0.000708	0.009850	0.006288	0.897127	0.573779	0.030950	0.127365	-0.048266	-0.990681	-0.961592	-0.250858	-0.111404	-0.243143	0.966820	-0.078363
19870	-9.718640	-1.090440	-0.718477	0.003320	0.012060	0.007859	0.905881	0.573885	0.022132	0.127300	-0.048462	-0.990680	-0.961590	-0.250919	-0.111287	-0.243187	0.966794	-0.078542
19871	-9.668960	-1.086130	-0.741607	0.004015	0.005892	0.008497	0.905141	0.575601	0.021960	0.127181	-0.048557	-0.990690	-0.961617	-0.250875	-0.111152	-0.243142	0.966801	-0.078600
19872	-9.666450	-1.102900	-0.712877	-0.002190	0.012446	0.008494	0.898308	0.574583	0.022688	0.126891	-0.048665	-0.990722	-0.961693	-0.250713	-0.110858	-0.242992	0.966837	-0.078614
19873	-9.672430	-1.211670	-0.637657	0.003571	0.010579	0.009438	0.896877	0.567129	0.026092	0.126773	-0.048807	-0.990730	-0.961720	-0.250673	-0.110712	-0.242946	0.966841	-0.078717
19874	-9.690340	-1.244430	-0.657026	0.011784	0.010805	0.009119	0.901257	0.569393	0.024699	0.126550	-0.048933	-0.990753	-0.961793	-0.250496	-0.110479	-0.242773	0.966880	-0.078764
19875	-9.710970	-0.982367	-0.823141	0.002390	0.008735	0.009442	0.897832	0.568246	0.022478	0.126426	-0.049057	-0.990762	-0.961818	-0.250467	-0.110331	-0.242741	0.966881	-0.078850
19876	-9.766790	-0.956080	-0.783969	-0.008690	0.007785	0.006612	0.894151	0.577899	0.025537	0.126144	-0.049148	-0.990794	-0.961854	-0.250458	-0.110035	-0.242744	0.966879	-0.078867
19877	-9.758190	-1.001930	-0.772970	-0.003277	0.009002	0.007239	0.898038	0.576898	0.019874	0.126041	-0.049270	-0.990801	-0.961862	-0.250484	-0.109904	-0.242765	0.966866	-0.078962
19878	-9.742810	-0.950090	-0.785144	-0.000824	0.011094	0.005977	0.895594	0.581170	0.023221	0.126043	-0.049298	-0.990799	-0.961900	-0.250336	-0.109911	-0.242614	0.966903	-0.078973
19879	-9.705230	-1.026690	-0.714104	-0.004267	0.003953	0.004724	0.894151	0.572400	0.022423	0.125953	-0.049364	-0.990807	-0.961903	-0.250372	-0.109804	-0.242651	0.966890	-0.079018
19880	-9.707000	-1.159070	-0.632506	-0.004711	0.008640	0.005666	0.897823	0.574197	0.027121	0.125959	-0.049367	-0.990806	-0.961928	-0.250269	-0.109818	-0.242547	0.966917	-0.079011
19881	-9.685150	-0.979758	-0.851264	-0.002510	0.012216	0.002827	0.895154	0.566421	0.025875	0.125908	-0.049507	-0.990806	-0.961932	-0.250289	-0.109733	-0.242556	0.966905	-0.079136
19882	-9.726940	-0.879203	-0.929767	-0.009995	0.002501	-0.001575	0.897827	0.571048	0.026526	0.125816	-0.049551	-0.990815	-0.961914	-0.250406	-0.109624	-0.242674	0.966872	-0.079169
19883	-9.750840	-0.883949	-0.930952	-0.011775	0.005224	-0.003467	0.893423	0.567329	0.021034	0.125808	-0.049607	-0.990813	-0.961889	-0.250519	-0.109593	-0.242781	0.966840	-0.079234
19884	-9.805900	-0.870646	-0.838197	-0.004739	0.003599	-0.003783	0.897846	0.568006	0.029595	0.125709	-0.049605	-0.990826	-0.961910	-0.250478	-0.109500	-0.242749	0.966851	-0.079202
19885	-9.823700	-0.904633	-0.857055	-0.003464	0.003844	-0.005043	0.897539	0.575727	0.018887	0.125712	-0.049643	-0.990824	-0.961902	-0.250512	-0.109491	-0.242777	0.966840	-0.079244
19886	-9.767120	-0.942395	-0.843979	-0.009805	-0.000702	-0.004094	0.896375	0.571374	0.030950	0.125637	-0.049600	-0.990836	-0.961908	-0.250516	-0.109428	-0.242793	0.966841	-0.079185
19887	-9.766350	-0.954914	-0.790856	-0.013174	0.001542	-0.010395	0.891702	0.570271	0.020667	0.125686	-0.049603	-0.990829	-0.961870	-0.250646	-0.109464	-0.242918	0.966807	-0.079214
19888	-9.703620	-1.022210	-0.795387	-0.010024	-0.002537	-0.011023	0.900987	0.570941	0.023099	0.125720	-0.049548	-0.990828	-0.961844	-0.250728	-0.109504	-0.243002	0.966789	-0.079179
19889	-9.701660	-1.167430	-0.760604	-0.007509	0.001275	-0.008190	0.896611	0.567894	0.025937	0.125747	-0.049554	-0.990824	-0.961823	-0.250801	-0.109523	-0.243073	0.966769	-0.079199
19890	-9.718710	-1.213640	-0.726098	0.008733	0.004921	-0.006306	0.902003	0.568175	0.032035	0.125630	-0.049583	-0.990837	-0.961876	-0.250644	-0.109415	-0.242922	0.966809	-0.079181
19891	-9.697910	-1.041570	-0.867018	0.018477	0.003905	-0.006308	0.894678	0.562703	0.027466	0.125644	-0.049619	-0.990834	-0.961921	-0.250465	-0.109435	-0.242739	0.966853	-0.079199
19892	-9.735810	-0.983318	-0.808700	0.007649	0.001474	-0.007564	0.903187	0.573987	0.026870	0.125490	-0.049736	-0.990847	-0.961920	-0.250547	-0.109250	-0.242820	0.966826	-0.079283
19893	-9.742930	-0.961612	-0.714087	0.010041	0.001849	-0.012919	0.900997	0.572734	0.027564	0.125562	-0.049736	-0.990838	-0.961936	-0.250454	-0.109328	-0.242722	0.966850	-0.079291
19894	-9.751420	-0.916303	-0.726132	0.012650	0.004060	-0.011345	0.903183	0.575451	0.026921	0.125557	-0.049787	-0.990836	-0.961967	-0.250336	-0.109320	-0.242599	0.966878	-0.079325
19895	-9.804220	-0.891397	-0.787180	0.005769	0.005801	-0.008195	0.896563	0.575935	0.019879	0.125593	-0.049838	-0.990829	-0.961978	-0.250281	-0.109347	-0.242537	0.966890	-0.079376
19896	-9.736380	-0.994063	-0.732780	0.000137	0.002747	-0.015752	0.894888	0.570612	0.025063	0.125685	-0.049771	-0.990821	-0.962003	-0.250136	-0.109465	-0.242392	0.966931	-0.079318
19897	-9.760170	-1.000230	-0.733767	0.000136	0.002748	-0.015751	0.887301	0.578127	0.026098	0.125786	-0.049772	-0.990808	-0.961991	-0.250139	-0.109562	-0.242387	0.966930	-0.079345
19898	-9.732410	-1.008520	-0.780585	0.001664	0.001511	-0.015435	0.893904	0.575427	0.026949	0.125993	-0.049712	-0.990785	-0.961978	-0.250093	-0.109782	-0.242331	0.966945	-0.079332
19899	-9.725390	-1.050850	-0.745301	-0.002669	0.003742	-0.014805	0.896358	0.567239	0.023952	0.126089	-0.049725	-0.990772	-0.961960	-0.250123	-0.109869	-0.242351	0.966936	-0.079371
19900	-9.701710	-1.174510	-0.739774	0.001056	0.006085	-0.017325	0.895370	0.573753	0.026145	0.126180	-0.049736	-0.990760	-0.961960	-0.250086	-0.109957	-0.242306	0.966945	-0.079400
19901	-9.707400	-1.285740	-0.663980	0.019074	0.007025	-0.013545	0.900508	0.572940	0.028781	0.126270	-0.049784	-0.990746	-0.961996	-0.249905	-0.110049	-0.242114	0.966990	-0.079448
19902	-9.723420	-1.187680	-0.765267	0.027249	0.010578	-0.008505	0.890714	0.574600	0.022770	0.126300	-0.049897	-0.990736	-0.962055	-0.249670	-0.110069	-0.241865	0.967044	-0.079537
19903	-9.759740	-0.997197	-0.789738	0.024418	0.006534	-0.017002	0.898299	0.569943	0.023790	0.126423	-0.049932	-0.990719	-0.962100	-0.249439	-0.110199	-0.241622	0.967102	-0.079574
19904	-9.770510	-0.964456	-0.648317	0.013461	0.009012	-0.011653	0.900480	0.571758	0.021159	0.126476	-0.049940	-0.990712	-0.962154	-0.249199	-0.110269	-0.241377	0.967164	-0.079567
19905	-9.805240	-1.044570	-0.632777	0.008014	0.011110	-0.006933	0.904888	0.569724	0.023756	0.126513	-0.050043	-0.990702	-0.962172	-0.249121	-0.110286	-0.241286	0.967179	-0.079667
19906	-9.720170	-1.101460	-0.613561	0.012028	0.008651	-0.013225	0.899497	0.574400	0.022480	0.126408	-0.050068	-0.990714	-0.962249	-0.248863	-0.110199	-0.241034	0.967244	-0.079636
19907	-9.669740	-1.081170	-0.766739	0.002542	0.008168	-0.011656	0.904640	0.578758	0.030680	0.126482	-0.050131	-0.990701	-0.962248	-0.248840	-0.110258	-0.240999	0.967246	-0.079712
19908	-9.635730	-1.118100	-0.831746	-0.005573	0.006331	-0.012603	0.901949	0.573093	0.025107	0.126536	-0.050176	-0.990692	-0.962234	-0.248877	-0.110297	-0.241026	0.967234	-0.079773
19909	-9.683440	-1.128590	-0.833949	0.005244	0.008784	-0.011338	0.903659	0.570706	0.023792	0.126609	-0.050246	-0.990679	-0.962240	-0.248828	-0.110354	-0.240964	0.967243	-0.079853
19910	-9.733660	-1.121510	-0.865807	0.012181	0.008774	-0.010387	0.897797	0.575209	0.027152	0.126516	-0.050308	-0.990688	-0.962301	-0.248635	-0.110265	-0.240772	0.967290	-0.079868
19911	-9.731800	-1.019660	-0.765483	0.015900	0.011123	-0.012903	0.900265	0.570668	0.031373	0.126609	-0.050397	-0.990672	-0.962330	-0.248483	-0.110346	-0.240604	0.967324	-0.079958
19912	-9.717210	-1.114380	-0.641801	0.013451	0.009026	-0.011643	0.902707	0.568056	0.029557	0.126645	-0.050527	-0.990660	-0.962336	-0.248459	-0.110352	-0.240562	0.967324	-0.080090
19913	-9.678500	-1.047790	-0.706434	0.010549	0.011618	-0.009444	0.894392	0.574559	0.031535	0.126705	-0.050629	-0.990648	-0.962357	-0.248357	-0.110394	-0.240445	0.967344	-0.080192
19914	-9.702910	-1.041930	-0.761215	0.004006	0.005218	-0.015425	0.902191	0.575422	0.028603	0.126747	-0.050740	-0.990636	-0.962325	-0.248480	-0.110398	-0.240552	0.967307	-0.080323
19915	-9.687750	-1.118860	-0.767537	0.001103	0.007809	-0.013227	0.897310	0.569210	0.024484	0.126834	-0.050797	-0.990622	-0.962319	-0.248472	-0.110469	-0.240531	0.967306	-0.080397
19916	-9.723380	-1.048980	-0.863977	0.009212	0.009655	-0.012273	0.898777	0.577244	0.032099	0.126829	-0.050883	-0.990619	-0.962346	-0.248377	-0.110452	-0.240427	0.967326	-0.080468
19917	-9.748980	-1.049210	-0.841912	0.009211	0.009656	-0.012272	0.893397	0.571851	0.025570	0.126911	-0.050960	-0.990604	-0.962360	-0.248291	-0.110520	-0.240326	0.967344	-0.080553
19918	-9.769560	-1.084550	-0.760570	0.010482	0.009907	-0.013529	0.901197	0.569607	0.020814	0.127036	-0.051061	-0.990583	-0.962356	-0.248264	-0.110619	-0.240278	0.967346	-0.080677
19919	-9.797480	-0.940527	-0.773680	0.005233	0.008793	-0.011331	0.891442	0.579896	0.032708	0.127107	-0.051132	-0.990570	-0.962362	-0.248216	-0.110675	-0.240217	0.967354	-0.080757
19920	-9.790420	-0.982672	-0.738720	-0.002935	0.005227	-0.016374	0.902894	0.573266	0.021181	0.127228	-0.051142	-0.990554	-0.962343	-0.248239	-0.110788	-0.240229	0.967348	-0.080800
19921	-9.735610	-1.142210	-0.696609	0.002628	0.006578	-0.012905	0.895831	0.573547	0.026347	0.127309	-0.051188	-0.990541	-0.962340	-0.248217	-0.110857	-0.240195	0.967351	-0.080861
19922	-9.678120	-1.162780	-0.814130	0.002269	0.009667	-0.013222	0.894619	0.574624	0.030298	0.127310	-0.051214	-0.990540	-0.962376	-0.248075	-0.110864	-0.240050	0.967386	-0.080869
19923	-9.691070	-1.094290	-0.832850	-0.000077	0.005963	-0.013222	0.901205	0.570188	0.025223	0.127392	-0.051253	-0.990527	-0.962367	-0.248079	-0.110934	-0.240043	0.967383	-0.080927
19924	-9.675710	-1.044350	-0.844650	-0.000078	0.005964	-0.013221	0.900238	0.574591	0.031738	0.127411	-0.051313	-0.990522	-0.962359	-0.248111	-0.110935	-0.240067	0.967372	-0.080993
19925	-9.707630	-1.015720	-0.804551	0.005527	0.003995	-0.015097	0.899983	0.571136	0.025991	0.127506	-0.051328	-0.990509	-0.962361	-0.248062	-0.111028	-0.240009	0.967383	-0.081025
19926	-9.728860	-1.039530	-0.776103	0.010671	0.006717	-0.016033	0.892381	0.579490	0.024124	0.127535	-0.051412	-0.990501	-0.962370	-0.248019	-0.111040	-0.239954	0.967390	-0.081109
19927	-9.752580	-1.045900	-0.777411	0.010670	0.006719	-0.016032	0.896827	0.576167	0.035220	0.127645	-0.051452	-0.990484	-0.962384	-0.247920	-0.111145	-0.239842	0.967413	-0.081162
19928	-9.737210	-0.996396	-0.789247	0.007707	0.007589	-0.017924	0.896066	0.580222	0.031215	0.127880	-0.051508	-0.990451	-0.962356	-0.247930	-0.111359	-0.239827	0.967408	-0.081274
19929	-9.750830	-0.916694	-0.861000	-0.002742	0.002029	-0.018881	0.898255	0.571758	0.022343	0.128007	-0.051495	-0.990436	-0.962334	-0.247963	-0.111483	-0.239850	0.967400	-0.081297
19930	-9.748730	-0.924462	-0.884757	-0.008206	-0.000923	-0.023605	0.897988	0.580992	0.023653	0.128170	-0.051426	-0.990418	-0.962299	-0.248022	-0.111653	-0.239904	0.967388	-0.081276
19931	-9.780610	-1.023330	-0.838861	-0.009942	0.003518	-0.021409	0.895084	0.575528	0.025904	0.128325	-0.051421	-0.990398	-0.962255	-0.248126	-0.111796	-0.239995	0.967362	-0.081321
19932	-9.797360	-1.070890	-0.804300	-0.005610	0.001303	-0.022026	0.902376	0.583447	0.023717	0.128510	-0.051331	-0.990379	-0.962243	-0.248081	-0.112001	-0.239945	0.967378	-0.081274
19933	-9.731560	-1.156360	-0.778972	-0.005452	0.001419	-0.019194	0.895828	0.577313	0.030599	0.128639	-0.051312	-0.990363	-0.962213	-0.248140	-0.112126	-0.239996	0.967364	-0.081293
19934	-9.740180	-1.111870	-0.791024	-0.001279	-0.000910	-0.022642	0.892901	0.577748	0.031843	0.128837	-0.051239	-0.990341	-0.962194	-0.248119	-0.112338	-0.239966	0.967374	-0.081269
19935	-9.702850	-1.052170	-0.777830	0.000049	0.001060	-0.019810	0.894369	0.573458	0.028990	0.128971	-0.051214	-0.990325	-0.962177	-0.248125	-0.112474	-0.239964	0.967373	-0.081278
19936	-9.724670	-1.064530	-0.802253	-0.005095	-0.001666	-0.018873	0.900237	0.574579	0.032180	0.129124	-0.051206	-0.990306	-0.962119	-0.248284	-0.112611	-0.240111	0.967333	-0.081326
19937	-9.687810	-1.119670	-0.837013	-0.003281	0.005021	-0.022018	0.896087	0.571955	0.030141	0.129289	-0.051214	-0.990284	-0.962091	-0.248324	-0.112766	-0.240136	0.967322	-0.081378
19938	-9.708940	-1.143960	-0.808398	0.004279	0.000452	-0.019169	0.903168	0.571968	0.030354	0.129335	-0.051266	-0.990275	-0.962067	-0.248407	-0.112790	-0.240209	0.967298	-0.081449
19939	-9.694960	-1.071160	-0.926140	0.005649	-0.000893	-0.021679	0.900964	0.567765	0.024830	0.129482	-0.051218	-0.990258	-0.962060	-0.248360	-0.112949	-0.240156	0.967313	-0.081433
19940	-9.735240	-1.008670	-0.844054	0.004478	-0.002746	-0.021678	0.895066	0.576898	0.021761	0.129394	-0.051206	-0.990270	-0.962081	-0.248314	-0.112870	-0.240118	0.967325	-0.081395
19941	-9.748750	-1.085520	-0.726055	0.001571	-0.000164	-0.019484	0.898745	0.573909	0.023589	0.129520	-0.051171	-0.990255	-0.962068	-0.248306	-0.113002	-0.240104	0.967329	-0.081391
19942	-9.772450	-1.092370	-0.726788	0.001408	-0.000274	-0.022312	0.890956	0.575560	0.031248	0.129595	-0.051056	-0.990252	-0.962101	-0.248126	-0.113117	-0.239932	0.967381	-0.081277
19943	-9.715430	-1.131200	-0.713383	-0.010975	0.001788	-0.018564	0.891916	0.576430	0.027608	0.129717	-0.051042	-0.990236	-0.962059	-0.248238	-0.113230	-0.240035	0.967353	-0.081306
19944	-9.735300	-1.149490	-0.761232	-0.007402	-0.008677	-0.024203	0.895336	0.579285	0.029893	0.129914	-0.050931	-0.990216	-0.961994	-0.248396	-0.113435	-0.240189	0.967319	-0.081265
19945	-9.715650	-1.123390	-0.766271	-0.016485	0.002148	-0.017942	0.901480	0.570614	0.033702	0.130031	-0.050922	-0.990201	-0.961939	-0.248562	-0.113537	-0.240345	0.967277	-0.081304
19946	-9.732290	-1.170750	-0.731533	-0.009245	-0.002638	-0.020752	0.902923	0.579139	0.034493	0.130099	-0.050944	-0.990191	-0.961875	-0.248792	-0.113578	-0.240565	0.967216	-0.081370
19947	-9.716010	-1.259800	-0.683973	-0.004046	0.001806	-0.017603	0.897310	0.571032	0.028596	0.130211	-0.050933	-0.990177	-0.961850	-0.248837	-0.113687	-0.240602	0.967205	-0.081392
19948	-9.682890	-1.302950	-0.671469	0.013861	0.004418	-0.012546	0.890207	0.578339	0.028644	0.130190	-0.051042	-0.990174	-0.961861	-0.248815	-0.113641	-0.240570	0.967205	-0.081489
19949	-9.680020	-1.177170	-0.777795	0.018096	0.003809	-0.011909	0.898239	0.580249	0.023796	0.130253	-0.051065	-0.990165	-0.961897	-0.248644	-0.113711	-0.240392	0.967248	-0.081506
19950	-9.655920	-1.173660	-0.777273	0.006921	0.004407	-0.013499	0.900250	0.578763	0.037901	0.130370	-0.051043	-0.990151	-0.961913	-0.248522	-0.113841	-0.240263	0.967281	-0.081499
19951	-9.667920	-1.128980	-0.688939	0.010992	0.003689	-0.015689	0.896515	0.582286	0.021428	0.130469	-0.051055	-0.990137	-0.961927	-0.248420	-0.113942	-0.240153	0.967306	-0.081523
19952	-9.725240	-1.081720	-0.756227	0.005446	0.007352	-0.009734	0.899702	0.582870	0.025834	0.130541	-0.051136	-0.990123	-0.961924	-0.248411	-0.113994	-0.240128	0.967304	-0.081616
19953	-9.720570	-1.105950	-0.750838	-0.002658	0.005481	-0.010690	0.890968	0.568795	0.029262	0.130596	-0.051178	-0.990114	-0.961912	-0.248439	-0.114035	-0.240147	0.967295	-0.081674
19954	-9.739810	-1.135270	-0.745925	0.008554	0.001580	-0.014433	0.902168	0.583839	0.032942	0.130634	-0.051170	-0.990109	-0.961929	-0.248351	-0.114081	-0.240057	0.967318	-0.081665
19955	-9.720900	-1.096720	-0.804648	0.004379	0.003898	-0.010988	0.897051	0.575183	0.028735	0.130688	-0.051196	-0.990101	-0.961933	-0.248311	-0.114131	-0.240010	0.967327	-0.081698
19956	-9.768570	-1.107540	-0.806586	0.000143	0.004507	-0.011625	0.899941	0.577683	0.020752	0.130737	-0.051271	-0.990090	-0.961911	-0.248386	-0.114154	-0.240072	0.967303	-0.081791
19957	-9.716070	-1.122170	-0.799345	0.005913	0.002668	-0.010668	0.899012	0.574162	0.030154	0.130785	-0.051286	-0.990083	-0.961920	-0.248332	-0.114201	-0.240013	0.967316	-0.081811
19958	-9.759230	-1.156140	-0.795268	0.009676	0.006749	-0.009093	0.894356	0.582128	0.032417	0.130714	-0.051322	-0.990091	-0.961976	-0.248143	-0.114139	-0.239826	0.967363	-0.081806
19959	-9.721580	-1.106870	-0.729305	0.008407	0.006493	-0.007839	0.897008	0.579123	0.021303	0.130743	-0.051381	-0.990084	-0.961994	-0.248063	-0.114161	-0.239737	0.967380	-0.081861
19960	-9.719530	-1.113360	-0.753419	0.008673	0.005004	-0.006266	0.889921	0.583441	0.022955	0.130790	-0.051393	-0.990077	-0.962020	-0.247935	-0.114213	-0.239605	0.967412	-0.081869
19961	-9.682560	-1.167370	-0.788143	0.008714	0.001696	-0.011601	0.891902	0.581525	0.028739	0.130844	-0.051397	-0.990070	-0.962034	-0.247854	-0.114272	-0.239520	0.967433	-0.081875
19962	-9.710210	-1.161690	-0.741904	0.004436	0.005611	-0.006904	0.900189	0.578341	0.022972	0.130987	-0.051373	-0.990052	-0.962043	-0.247751	-0.114426	-0.239408	0.967461	-0.081875
19963	-9.690700	-1.134370	-0.747634	0.005704	0.005870	-0.008157	0.894599	0.577849	0.029328	0.131019	-0.051425	-0.990045	-0.962054	-0.247697	-0.114449	-0.239346	0.967472	-0.081927
19964	-9.690580	-1.135180	-0.748001	0.008773	0.003407	-0.007518	0.892373	0.584519	0.027137	0.130994	-0.051428	-0.990048	-0.962093	-0.247551	-0.114436	-0.239202	0.967509	-0.081906
19965	-9.721470	-1.100300	-0.784864	0.010938	0.007014	-0.010342	0.889722	0.579907	0.032842	0.131049	-0.051485	-0.990038	-0.962114	-0.247447	-0.114485	-0.239088	0.967532	-0.081962
19966	-9.694830	-1.113790	-0.754955	0.007133	0.006239	-0.006582	0.900924	0.583527	0.028288	0.131202	-0.051536	-0.990015	-0.962097	-0.247448	-0.114621	-0.239070	0.967530	-0.082048
19967	-9.722490	-1.108050	-0.708991	0.010936	0.007016	-0.010340	0.898746	0.576447	0.028037	0.131259	-0.051593	-0.990005	-0.962118	-0.247345	-0.114671	-0.238956	0.967553	-0.082105
19968	-9.725550	-1.080020	-0.792463	0.011038	0.005417	-0.011593	0.894567	0.588797	0.030702	0.131288	-0.051635	-0.989999	-0.962145	-0.247228	-0.114700	-0.238833	0.967580	-0.082138
19969	-9.727970	-1.063780	-0.822528	0.008338	0.004791	-0.011913	0.898770	0.577165	0.035145	0.131354	-0.051667	-0.989988	-0.962157	-0.247151	-0.114762	-0.238747	0.967599	-0.082176
19970	-9.725220	-1.082290	-0.793333	-0.001235	0.005850	-0.009115	0.896996	0.585117	0.024693	0.131480	-0.051767	-0.989966	-0.962109	-0.247297	-0.114849	-0.238870	0.967556	-0.082320
19971	-9.747020	-1.093990	-0.818247	0.008337	0.004793	-0.011912	0.895050	0.585754	0.027166	0.131547	-0.051800	-0.989956	-0.962121	-0.247220	-0.114912	-0.238784	0.967574	-0.082358
19972	-9.749450	-1.077690	-0.848226	0.008604	0.003304	-0.010339	0.897520	0.574575	0.025770	0.131687	-0.051751	-0.989940	-0.962142	-0.247063	-0.115073	-0.238623	0.967616	-0.082327
19973	-9.705420	-1.057470	-0.799638	0.004369	0.003907	-0.010979	0.899013	0.572659	0.031556	0.131742	-0.051777	-0.989931	-0.962146	-0.247024	-0.115125	-0.238576	0.967625	-0.082360
19974	-9.722040	-1.104190	-0.764870	0.000610	-0.000179	-0.012554	0.898734	0.575834	0.024832	0.131664	-0.051796	-0.989940	-0.962152	-0.247039	-0.115043	-0.238595	0.967620	-0.082362
19975	-9.757990	-1.179040	-0.724926	0.002832	0.005140	-0.011298	0.894572	0.576635	0.022678	0.131726	-0.051834	-0.989930	-0.962152	-0.247014	-0.115095	-0.238561	0.967624	-0.082410
19976	-9.727430	-1.204150	-0.741965	0.000774	-0.000069	-0.009728	0.892382	0.575615	0.023627	0.131662	-0.051770	-0.989942	-0.962189	-0.246887	-0.115059	-0.238447	0.967660	-0.082318
19977	-9.723360	-1.216520	-0.789558	0.002891	0.006850	-0.007219	0.894599	0.577326	0.030520	0.131687	-0.051833	-0.989935	-0.962195	-0.246860	-0.115071	-0.238410	0.967664	-0.082382
19978	-9.706500	-1.171710	-0.824745	0.006439	-0.000300	-0.007513	0.892167	0.577473	0.032979	0.131665	-0.051811	-0.989939	-0.962215	-0.246784	-0.115061	-0.238340	0.967684	-0.082346
19979	-9.724650	-1.079660	-0.848968	0.008764	0.003420	-0.007510	0.899733	0.579413	0.033997	0.131685	-0.051840	-0.989935	-0.962235	-0.246700	-0.115081	-0.238251	0.967704	-0.082369
19980	-9.733670	-1.034100	-0.861213	0.008868	0.001821	-0.008763	0.905085	0.576759	0.026795	0.131720	-0.051929	-0.989926	-0.962215	-0.246772	-0.115087	-0.238310	0.967681	-0.082472
19981	-9.748330	-1.086300	-0.850082	0.008763	0.003421	-0.007509	0.894569	0.580693	0.025270	0.131740	-0.051959	-0.989922	-0.962234	-0.246689	-0.115107	-0.238222	0.967701	-0.082496
19982	-9.726290	-1.076490	-0.825791	0.006169	0.001192	-0.009083	0.893596	0.579949	0.025490	0.131692	-0.051944	-0.989929	-0.962272	-0.246557	-0.115075	-0.238097	0.967735	-0.082454
19983	-9.744870	-1.117390	-0.767208	0.011503	0.000744	-0.012517	0.898749	0.581152	0.033087	0.131753	-0.051935	-0.989921	-0.962291	-0.246450	-0.115146	-0.237986	0.967763	-0.082448
19984	-9.699560	-1.091110	-0.795309	0.006332	0.001303	-0.006258	0.899239	0.579001	0.031785	0.131773	-0.051957	-0.989917	-0.962297	-0.246420	-0.115163	-0.237952	0.967769	-0.082469
19985	-9.740070	-1.142620	-0.761107	0.017001	0.000408	-0.013125	0.895294	0.586956	0.027693	0.131840	-0.051944	-0.989909	-0.962328	-0.246260	-0.115244	-0.237789	0.967811	-0.082454
19986	-9.673430	-1.094170	-0.818175	0.012722	0.004317	-0.008437	0.894104	0.575269	0.026537	0.131917	-0.051989	-0.989897	-0.962341	-0.246175	-0.115316	-0.237693	0.967830	-0.082506
19987	-9.727680	-1.075950	-0.802264	0.005004	-0.000666	-0.009082	0.897263	0.579452	0.025945	0.131942	-0.051975	-0.989894	-0.962349	-0.246129	-0.115348	-0.237647	0.967842	-0.082493
19988	-9.744920	-1.110790	-0.820600	0.006165	0.001195	-0.009081	0.895051	0.579588	0.022050	0.131919	-0.051961	-0.989898	-0.962376	-0.246030	-0.115337	-0.237551	0.967868	-0.082462
19989	-9.753970	-1.065390	-0.832676	0.003572	-0.001036	-0.010654	0.886326	0.573267	0.033823	0.131959	-0.051940	-0.989893	-0.962378	-0.245998	-0.115383	-0.237519	0.967878	-0.082448
19990	-9.753240	-1.078160	-0.779092	-0.001718	-0.003898	-0.012550	0.898498	0.583612	0.032442	0.132009	-0.051882	-0.989890	-0.962359	-0.246046	-0.115442	-0.237569	0.967869	-0.082410
19991	-9.748550	-1.102510	-0.772732	-0.004521	-0.002930	-0.011619	0.896586	0.568984	0.031426	0.132054	-0.051841	-0.989886	-0.962341	-0.246093	-0.115491	-0.237617	0.967859	-0.082386
19992	-9.715380	-1.144880	-0.759668	-0.004460	-0.001221	-0.007543	0.902653	0.576716	0.027533	0.131997	-0.051900	-0.989890	-0.962311	-0.246249	-0.115408	-0.237770	0.967816	-0.082448
19993	-9.715280	-1.145700	-0.759626	0.000768	-0.000065	-0.009723	0.894590	0.580785	0.029179	0.132029	-0.051892	-0.989887	-0.962308	-0.246244	-0.115442	-0.237763	0.967818	-0.082447
19994	-9.703380	-1.210370	-0.717682	0.007969	-0.001520	-0.007186	0.901169	0.578560	0.023698	0.131979	-0.051889	-0.989893	-0.962332	-0.246170	-0.115401	-0.237694	0.967837	-0.082424
19995	-9.693840	-1.124950	-0.788283	0.014523	0.001607	-0.006542	0.895787	0.584345	0.025396	0.131985	-0.051905	-0.989892	-0.962366	-0.246031	-0.115414	-0.237553	0.967871	-0.082424
19996	-9.693750	-1.125770	-0.788182	0.011930	-0.000624	-0.008114	0.896509	0.589905	0.027063	0.131975	-0.051843	-0.989896	-0.962418	-0.245816	-0.115438	-0.237348	0.967929	-0.082337
19997	-9.695660	-1.120730	-0.764341	0.009399	-0.001147	-0.005612	0.895787	0.581748	0.022860	0.131965	-0.051834	-0.989898	-0.962441	-0.245726	-0.115438	-0.237260	0.967952	-0.082315
19998	-9.696240	-1.109810	-0.817437	0.005270	-0.002151	-0.007506	0.892907	0.579620	0.034032	0.132050	-0.051742	-0.989892	-0.962461	-0.245595	-0.115553	-0.237134	0.967991	-0.082231
19999	-9.748560	-1.097420	-0.824728	0.003943	-0.004121	-0.010330	0.889956	0.576740	0.025633	0.132079	-0.051692	-0.989890	-0.962464	-0.245560	-0.115596	-0.237102	0.968002	-0.082185
20000	-9.741280	-1.138720	-0.788578	0.001474	-0.002936	-0.003753	0.896812	0.580143	0.033305	0.132075	-0.051691	-0.989891	-0.962448	-0.245627	-0.115587	-0.237169	0.967985	-0.082191
20001	-9.725900	-1.099510	-0.746457	0.003628	0.000677	-0.006576	0.900699	0.576536	0.025341	0.132079	-0.051697	-0.989890	-0.962456	-0.245593	-0.115593	-0.237134	0.967993	-0.082194
20002	-9.753680	-1.093700	-0.699629	0.007014	-0.006575	-0.009686	0.894331	0.576004	0.019240	0.132038	-0.051661	-0.989897	-0.962466	-0.245568	-0.115564	-0.237117	0.968002	-0.082147
20003	-9.694630	-1.136800	-0.709117	0.002467	-0.001184	-0.006576	0.896809	0.574017	0.026976	0.132038	-0.051649	-0.989898	-0.962472	-0.245545	-0.115568	-0.237096	0.968008	-0.082132
20004	-9.693240	-1.131780	-0.785876	0.003836	-0.002520	-0.009077	0.893130	0.577962	0.025670	0.131952	-0.051574	-0.989913	-0.962513	-0.245408	-0.115514	-0.236975	0.968047	-0.082023
20005	-9.676530	-1.087020	-0.820645	-0.000230	-0.001817	-0.006897	0.898268	0.575031	0.026032	0.131953	-0.051555	-0.989914	-0.962512	-0.245411	-0.115519	-0.236980	0.968047	-0.082005
20006	-9.713050	-1.149670	-0.833563	-0.006992	-0.001749	-0.005039	0.899482	0.576289	0.025098	0.131869	-0.051531	-0.989927	-0.962511	-0.245450	-0.115440	-0.237029	0.968039	-0.081966
20007	-9.716960	-1.138570	-0.786143	-0.004191	-0.002713	-0.005968	0.900442	0.575980	0.020199	0.131859	-0.051505	-0.989930	-0.962502	-0.245491	-0.115433	-0.237074	0.968030	-0.081944
20008	-9.740130	-1.155850	-0.733164	0.001515	-0.006241	-0.009077	0.899013	0.578265	0.031038	0.131735	-0.051399	-0.989952	-0.962547	-0.245351	-0.115350	-0.236957	0.968071	-0.081795
20009	-9.732150	-1.208680	-0.643582	0.001474	-0.002935	-0.003752	0.898777	0.577487	0.032233	0.131702	-0.051377	-0.989957	-0.962554	-0.245336	-0.115324	-0.236947	0.968076	-0.081764
20010	-9.754700	-1.208170	-0.721264	0.000992	0.001753	-0.002823	0.901212	0.577548	0.030764	0.131626	-0.051471	-0.989962	-0.962540	-0.245443	-0.115219	-0.237049	0.968044	-0.081850
20011	-9.700190	-1.094900	-0.820173	-0.002592	-0.002233	-0.001572	0.896089	0.577504	0.031518	0.131574	-0.051462	-0.989970	-0.962540	-0.245466	-0.115168	-0.237077	0.968038	-0.081831
20012	-9.682360	-1.176200	-0.849107	-0.004129	-0.001006	-0.001893	0.895828	0.579326	0.028412	0.131479	-0.051524	-0.989979	-0.962518	-0.245607	-0.115050	-0.237218	0.967999	-0.081885
20013	-9.714820	-1.146530	-0.808602	0.002801	-0.000964	-0.000929	0.882178	0.575046	0.030756	0.131424	-0.051528	-0.989986	-0.962532	-0.245578	-0.114997	-0.237193	0.968006	-0.081872
20014	-9.728690	-1.077070	-0.826775	0.003961	0.000897	-0.000929	0.897265	0.582208	0.023144	0.131423	-0.051561	-0.989985	-0.962519	-0.245634	-0.114984	-0.237245	0.967990	-0.081911
20015	-9.734580	-1.060010	-0.755819	0.001201	-0.001444	-0.005324	0.893862	0.580644	0.025544	0.131409	-0.051550	-0.989987	-0.962523	-0.245623	-0.114973	-0.237236	0.967994	-0.081895
20016	-9.755120	-1.094440	-0.673291	-0.003920	-0.004203	-0.004395	0.904371	0.576309	0.024615	0.131399	-0.051459	-0.989993	-0.962530	-0.245587	-0.114989	-0.237212	0.968008	-0.081801
20017	-9.722620	-1.124550	-0.713637	-0.007202	0.001449	-0.002536	0.896075	0.580741	0.029698	0.131365	-0.051483	-0.989996	-0.962518	-0.245656	-0.114944	-0.237281	0.967989	-0.081824
20018	-9.717970	-1.147960	-0.707521	0.000209	-0.003197	-0.002501	0.898770	0.573083	0.025502	0.131255	-0.051469	-0.990012	-0.962534	-0.245640	-0.114842	-0.237275	0.967994	-0.081782
20019	-9.692760	-1.137430	-0.783572	0.002528	0.000526	-0.002501	0.895092	0.581052	0.027765	0.131218	-0.051484	-0.990016	-0.962545	-0.245614	-0.114805	-0.237252	0.967999	-0.081785
20020	-9.698040	-1.102890	-0.843004	0.002528	0.000526	-0.002501	0.901217	0.574220	0.027983	0.131131	-0.051494	-0.990027	-0.962565	-0.245578	-0.114721	-0.237221	0.968008	-0.081769
20021	-9.713930	-1.160370	-0.754641	0.008026	0.000197	-0.003110	0.895812	0.583076	0.025887	0.131099	-0.051504	-0.990030	-0.962588	-0.245500	-0.114694	-0.237145	0.968027	-0.081762
20022	-9.751680	-1.096130	-0.773498	0.009562	-0.001030	-0.002788	0.900963	0.575988	0.026343	0.131024	-0.051501	-0.990041	-0.962622	-0.245396	-0.114630	-0.237049	0.968054	-0.081728
20023	-9.738320	-1.051010	-0.707733	0.003896	-0.000809	-0.005002	0.889464	0.573571	0.017995	0.131007	-0.051497	-0.990043	-0.962633	-0.245359	-0.114618	-0.237013	0.968064	-0.081716
20024	-9.716370	-1.040550	-0.683286	0.003960	0.000898	-0.000929	0.902899	0.582326	0.026816	0.130873	-0.051463	-0.990063	-0.962685	-0.245207	-0.114508	-0.236877	0.968104	-0.081634
20025	-9.745560	-1.011000	-0.743338	-0.001223	-0.003569	-0.004073	0.901706	0.570908	0.024940	0.130841	-0.051435	-0.990068	-0.962685	-0.245218	-0.114483	-0.236894	0.968103	-0.081600
20026	-9.706450	-1.070090	-0.801233	-0.009899	0.000812	-0.002857	0.891895	0.580571	0.020449	0.130697	-0.051455	-0.990086	-0.962688	-0.245273	-0.114334	-0.236959	0.968087	-0.081592
20027	-9.746890	-1.121010	-0.767056	-0.005730	-0.001486	-0.006287	0.893641	0.571929	0.023059	0.130691	-0.051441	-0.990088	-0.962675	-0.245329	-0.114326	-0.237017	0.968074	-0.081584
20028	-9.708320	-1.065220	-0.777616	0.002359	0.000419	-0.005324	0.895568	0.581676	0.023899	0.130651	-0.051375	-0.990096	-0.962711	-0.245195	-0.114315	-0.236894	0.968112	-0.081494
20029	-9.728200	-1.082270	-0.825754	0.002254	0.002017	-0.004073	0.894621	0.580910	0.031450	0.130632	-0.051400	-0.990098	-0.962719	-0.245172	-0.114292	-0.236870	0.968116	-0.081511
20030	-9.732080	-1.071290	-0.778576	0.002190	0.000311	-0.008146	0.892404	0.585365	0.029668	0.130700	-0.051386	-0.990089	-0.962709	-0.245177	-0.114361	-0.236871	0.968115	-0.081515
20031	-9.724710	-1.112410	-0.742893	0.003687	0.002389	-0.002501	0.893656	0.571551	0.026718	0.130667	-0.051418	-0.990092	-0.962723	-0.245140	-0.114324	-0.236833	0.968123	-0.081533
20032	-9.721980	-1.130380	-0.713167	0.009224	-0.001243	-0.008432	0.896098	0.577252	0.031315	0.130714	-0.051400	-0.990087	-0.962726	-0.245105	-0.114377	-0.236796	0.968133	-0.081523
20033	-9.745790	-1.136110	-0.713723	0.009392	-0.001134	-0.005609	0.901460	0.577835	0.029119	0.130702	-0.051391	-0.990089	-0.962749	-0.245015	-0.114376	-0.236708	0.968156	-0.081500
20034	-9.683360	-1.075300	-0.723599	0.000716	0.003244	-0.004394	0.901233	0.578849	0.034778	0.130655	-0.051470	-0.990091	-0.962738	-0.245094	-0.114305	-0.236782	0.968132	-0.081575
20035	-9.717130	-1.022970	-0.790105	0.000652	0.001538	-0.008466	0.902921	0.576683	0.027364	0.130677	-0.051480	-0.990088	-0.962736	-0.245089	-0.114324	-0.236774	0.968133	-0.081589
20036	-9.749530	-0.994071	-0.749745	-0.001939	-0.000695	-0.010037	0.897052	0.580089	0.027266	0.130648	-0.051524	-0.990089	-0.962713	-0.245202	-0.114276	-0.236884	0.968102	-0.081638
20037	-9.731520	-1.076180	-0.778739	0.000756	-0.000059	-0.009716	0.890952	0.577657	0.026469	0.130678	-0.051516	-0.990085	-0.962711	-0.245198	-0.114307	-0.236878	0.968103	-0.081637
20038	-9.733400	-1.071220	-0.755216	-0.004846	0.001865	-0.007858	0.890210	0.576569	0.022768	0.130717	-0.051511	-0.990081	-0.962691	-0.245261	-0.114340	-0.236938	0.968088	-0.081649
20039	-9.731320	-1.077920	-0.778880	0.000860	-0.001656	-0.010965	0.895071	0.585339	0.023803	0.130755	-0.051484	-0.990077	-0.962687	-0.245256	-0.114384	-0.236933	0.968090	-0.081632
20040	-9.741150	-1.153350	-0.761301	-0.004467	-0.001223	-0.007536	0.900002	0.573969	0.027768	0.130810	-0.051396	-0.990074	-0.962685	-0.245228	-0.114461	-0.236911	0.968102	-0.081557
20041	-9.738360	-1.171570	-0.731733	0.005767	0.004304	-0.009394	0.890925	0.584088	0.024264	0.130848	-0.051430	-0.990068	-0.962694	-0.245174	-0.114494	-0.236851	0.968114	-0.081592
20042	-9.705050	-1.213640	-0.719051	0.015835	0.003605	-0.003715	0.897789	0.573166	0.022863	0.130829	-0.051447	-0.990069	-0.962738	-0.245009	-0.114486	-0.236685	0.968155	-0.081585
20043	-9.720940	-1.138780	-0.713902	0.014297	0.004832	-0.004036	0.896833	0.575815	0.030538	0.130817	-0.051500	-0.990068	-0.962774	-0.244870	-0.114473	-0.236542	0.968187	-0.081616
20044	-9.718880	-1.145160	-0.737714	0.006315	0.001324	-0.006249	0.896305	0.579984	0.023365	0.130735	-0.051520	-0.990078	-0.962797	-0.244817	-0.114393	-0.236495	0.968200	-0.081609
20045	-9.755970	-1.092860	-0.703535	0.004777	0.002550	-0.006571	0.900478	0.577170	0.027157	0.130740	-0.051544	-0.990076	-0.962808	-0.244772	-0.114397	-0.236446	0.968210	-0.081629
20046	-9.728030	-1.100070	-0.750222	0.006209	0.002923	-0.004999	0.903139	0.579308	0.022341	0.130696	-0.051552	-0.990081	-0.962837	-0.244675	-0.114359	-0.236353	0.968234	-0.081615
20047	-9.734590	-1.071760	-0.732880	0.003344	0.002178	-0.008142	0.898281	0.584514	0.033300	0.130716	-0.051569	-0.990078	-0.962843	-0.244645	-0.114377	-0.236319	0.968240	-0.081632
20048	-9.678770	-1.085620	-0.826214	-0.002362	0.005697	-0.005037	0.903631	0.582821	0.026623	0.130715	-0.051628	-0.990075	-0.962836	-0.244680	-0.114360	-0.236348	0.968228	-0.081693
20049	-9.700550	-1.096920	-0.851185	-0.005058	0.005060	-0.005359	0.902680	0.577589	0.029370	0.130715	-0.051679	-0.990072	-0.962825	-0.244730	-0.114344	-0.236391	0.968213	-0.081748
20050	-9.702450	-1.091690	-0.827911	0.002081	0.001914	-0.006892	0.901672	0.584759	0.026949	0.130674	-0.051711	-0.990076	-0.962834	-0.244718	-0.114297	-0.236378	0.968214	-0.081767
20051	-9.720880	-1.132190	-0.769421	0.003343	0.002179	-0.008141	0.895807	0.578629	0.020397	0.130694	-0.051728	-0.990072	-0.962840	-0.244687	-0.114315	-0.236345	0.968221	-0.081785
20052	-9.726760	-1.115570	-0.698741	0.008733	0.003456	-0.007497	0.902895	0.577621	0.021799	0.130711	-0.051705	-0.990071	-0.962878	-0.244521	-0.114351	-0.236181	0.968264	-0.081747
20053	-9.723980	-1.133710	-0.669188	0.010270	0.002231	-0.007174	0.895325	0.577861	0.021350	0.130722	-0.051724	-0.990069	-0.962901	-0.244423	-0.114365	-0.236080	0.968288	-0.081757
20054	-9.729250	-1.099690	-0.728750	0.011702	0.002605	-0.005602	0.892154	0.578539	0.022610	0.130648	-0.051690	-0.990080	-0.962966	-0.244189	-0.114321	-0.235857	0.968349	-0.081678
20055	-9.705940	-1.083750	-0.781745	-0.002640	0.007188	-0.006609	0.894644	0.577588	0.035515	0.130665	-0.051759	-0.990075	-0.962959	-0.244215	-0.114319	-0.235874	0.968339	-0.081752
20056	-9.677300	-1.102530	-0.775070	0.001304	-0.003038	-0.006568	0.896039	0.583484	0.021313	0.130682	-0.051737	-0.990073	-0.962941	-0.244281	-0.114335	-0.235940	0.968323	-0.081743
20057	-9.756210	-1.077750	-0.813262	0.003236	0.003779	-0.006891	0.893404	0.584894	0.036034	0.130693	-0.051772	-0.990070	-0.962948	-0.244250	-0.114341	-0.235905	0.968329	-0.081776
20058	-9.729550	-1.090780	-0.783066	0.000541	0.003140	-0.007213	0.900953	0.575603	0.023452	0.130804	-0.051786	-0.990055	-0.962925	-0.244294	-0.114441	-0.235938	0.968317	-0.081820
20059	-9.743290	-1.154340	-0.718591	-0.000722	0.002875	-0.005964	0.895810	0.580016	0.022657	0.130804	-0.051814	-0.990053	-0.962923	-0.244302	-0.114435	-0.235942	0.968314	-0.081849
20060	-9.722660	-1.149770	-0.617517	0.004667	0.004153	-0.005319	0.895119	0.566090	0.022642	0.130745	-0.051810	-0.990061	-0.962961	-0.244175	-0.114389	-0.235822	0.968346	-0.081816
20061	-9.729290	-1.092530	-0.783881	0.005049	0.001064	-0.004996	0.894847	0.580584	0.027083	0.130732	-0.051823	-0.990062	-0.962975	-0.244126	-0.114377	-0.235773	0.968358	-0.081820
20062	-9.703340	-1.093780	-0.806829	0.002248	0.002023	-0.004069	0.896775	0.578698	0.018703	0.130635	-0.051829	-0.990075	-0.962995	-0.244088	-0.114284	-0.235743	0.968367	-0.081797
20063	-9.707290	-1.082740	-0.759616	0.006416	-0.000267	-0.007493	0.900451	0.580247	0.023388	0.130642	-0.051823	-0.990074	-0.963009	-0.244028	-0.114298	-0.235682	0.968383	-0.081787
20064	-9.724390	-1.117360	-0.778062	0.006098	0.004528	-0.003747	0.892681	0.574580	0.030787	0.130585	-0.051800	-0.990083	-0.963061	-0.243838	-0.114264	-0.235501	0.968432	-0.081728
20065	-9.706450	-1.095400	-0.706784	0.008621	0.005061	-0.006244	0.902411	0.581359	0.026601	0.130594	-0.051848	-0.990079	-0.963082	-0.243755	-0.114268	-0.235413	0.968450	-0.081767
20066	-9.703670	-1.113420	-0.677330	0.002077	0.001916	-0.006889	0.893160	0.574184	0.028330	0.130583	-0.051880	-0.990079	-0.963075	-0.243792	-0.114246	-0.235447	0.968439	-0.081799
20067	-9.728140	-1.107490	-0.731713	0.000709	0.003248	-0.004392	0.896287	0.583183	0.023030	0.130569	-0.051916	-0.990079	-0.963079	-0.243785	-0.114225	-0.235436	0.968439	-0.081830
20068	-9.716660	-1.160150	-0.743414	-0.000723	0.002875	-0.005963	0.896334	0.573481	0.027808	0.130576	-0.051915	-0.990078	-0.963078	-0.243788	-0.114232	-0.235438	0.968438	-0.081831
20069	-9.738430	-1.171530	-0.768211	0.001864	0.005113	-0.004392	0.899748	0.578500	0.031157	0.130567	-0.051968	-0.990077	-0.963085	-0.243769	-0.114212	-0.235415	0.968440	-0.081878
20070	-9.725880	-1.114750	-0.756341	0.002247	0.002024	-0.004069	0.893866	0.581788	0.027637	0.130500	-0.052022	-0.990083	-0.963081	-0.243822	-0.114130	-0.235467	0.968424	-0.081920
20071	-9.730480	-1.092100	-0.762935	0.002742	0.008470	-0.005963	0.896305	0.585594	0.030699	0.130513	-0.052105	-0.990076	-0.963088	-0.243796	-0.114125	-0.235431	0.968426	-0.082000
20072	-9.737100	-1.063730	-0.745667	0.001305	-0.003037	-0.006566	0.893134	0.581769	0.028131	0.130594	-0.052064	-0.990068	-0.963066	-0.243842	-0.114210	-0.235474	0.968416	-0.081986
20073	-9.724950	-1.127970	-0.704026	0.002635	0.010069	-0.004714	0.903640	0.579572	0.028989	0.130600	-0.052165	-0.990062	-0.963075	-0.243817	-0.114193	-0.235437	0.968417	-0.082081
20074	-9.722810	-1.134370	-0.728305	0.005925	0.004424	-0.006564	0.887994	0.581629	0.024972	0.130620	-0.052208	-0.990057	-0.963078	-0.243798	-0.114205	-0.235411	0.968420	-0.082126
20075	-9.723390	-1.123340	-0.782027	0.004833	0.004264	-0.002496	0.903612	0.581495	0.023201	0.130591	-0.052258	-0.990058	-0.963095	-0.243750	-0.114168	-0.235360	0.968429	-0.082161
20076	-9.742480	-1.151920	-0.777126	0.001863	0.005115	-0.004391	0.897791	0.574704	0.028108	0.130611	-0.052254	-0.990056	-0.963110	-0.243679	-0.114195	-0.235289	0.968447	-0.082153
20077	-9.758530	-1.076950	-0.772293	0.007526	0.004906	-0.002172	0.897528	0.579620	0.027313	0.130580	-0.052311	-0.990057	-0.963133	-0.243605	-0.114157	-0.235211	0.968463	-0.082192
20078	-9.710720	-1.066990	-0.771248	0.007312	0.008103	0.000325	0.892908	0.576799	0.030652	0.130498	-0.052406	-0.990063	-0.963156	-0.243560	-0.114059	-0.235162	0.968469	-0.082259
20079	-9.751670	-1.106380	-0.790779	0.000815	0.001651	-0.005639	0.895588	0.572123	0.025098	0.130493	-0.052423	-0.990062	-0.963159	-0.243552	-0.114051	-0.235153	0.968470	-0.082274
20080	-9.703200	-1.108050	-0.736477	-0.005492	0.011451	-0.000368	0.895324	0.578940	0.025841	0.130424	-0.052550	-0.990065	-0.963146	-0.243652	-0.113945	-0.235244	0.968438	-0.082391
20081	-9.717610	-1.159510	-0.725767	-0.001816	0.002716	-0.001895	0.892925	0.572349	0.032208	0.130384	-0.052587	-0.990068	-0.963147	-0.243669	-0.113897	-0.235259	0.968432	-0.082419
20082	-9.689620	-1.166360	-0.772662	0.001755	0.006714	-0.003141	0.898732	0.580696	0.024920	0.130354	-0.052666	-0.990068	-0.963141	-0.243719	-0.113845	-0.235303	0.968415	-0.082494
20083	-9.698940	-1.120220	-0.785539	0.001924	0.006822	-0.000321	0.896527	0.586675	0.028327	0.130310	-0.052746	-0.990069	-0.963153	-0.243699	-0.113784	-0.235277	0.968416	-0.082559
20084	-9.722120	-1.136890	-0.733615	0.000492	0.006448	-0.001893	0.896763	0.582481	0.022801	0.130335	-0.052780	-0.990064	-0.963156	-0.243679	-0.113803	-0.235251	0.968419	-0.082595
20085	-9.753290	-1.101560	-0.770955	0.007309	0.008106	0.000328	0.896783	0.581800	0.028155	0.130288	-0.052874	-0.990065	-0.963182	-0.243605	-0.113740	-0.235171	0.968432	-0.082666
20086	-9.712850	-1.050930	-0.805973	0.004508	0.009063	0.001252	0.893595	0.584050	0.026543	0.130272	-0.052930	-0.990064	-0.963205	-0.243525	-0.113718	-0.235087	0.968449	-0.082707
20087	-9.757880	-1.078460	-0.778384	0.006370	0.003043	-0.002169	0.894813	0.578143	0.021195	0.130236	-0.052969	-0.990067	-0.963225	-0.243463	-0.113680	-0.235023	0.968463	-0.082729
20088	-9.698630	-1.120630	-0.788822	-0.005494	0.011453	-0.000369	0.899255	0.575780	0.032822	0.130246	-0.053024	-0.990063	-0.963227	-0.243458	-0.113677	-0.235011	0.968461	-0.082784
20089	-9.717750	-1.148780	-0.784260	0.001046	0.003465	0.001250	0.900673	0.583589	0.026510	0.130179	-0.053075	-0.990069	-0.963239	-0.243445	-0.113601	-0.234998	0.968461	-0.082816
20090	-9.693850	-1.143750	-0.783778	0.003569	0.004000	-0.001245	0.902881	0.577080	0.024313	0.130131	-0.053136	-0.990072	-0.963245	-0.243451	-0.113539	-0.235001	0.968457	-0.082863
20091	-9.721760	-1.137220	-0.737786	0.003461	0.005599	0.000004	0.899972	0.576380	0.029921	0.130081	-0.053205	-0.990075	-0.963261	-0.243415	-0.113477	-0.234962	0.968462	-0.082914
20092	-9.731710	-1.079380	-0.804079	0.004506	0.009065	0.001253	0.891425	0.573048	0.026903	0.129960	-0.053305	-0.990085	-0.963291	-0.243359	-0.113341	-0.234905	0.968470	-0.082975
20093	-9.758180	-1.067080	-0.835319	0.003461	0.005600	0.000004	0.897805	0.572269	0.035405	0.129910	-0.053374	-0.990088	-0.963308	-0.243323	-0.113279	-0.234865	0.968476	-0.083025
20094	-9.738340	-1.050520	-0.787835	0.001753	0.006717	-0.003140	0.901649	0.578565	0.023898	0.129853	-0.053478	-0.990090	-0.963296	-0.243410	-0.113191	-0.234945	0.968448	-0.083122
20095	-9.714400	-1.045640	-0.787584	0.003460	0.005600	0.000004	0.901671	0.576446	0.028465	0.129802	-0.053547	-0.990093	-0.963312	-0.243375	-0.113129	-0.234906	0.968453	-0.083173
20096	-9.757390	-1.079020	-0.783665	0.000491	0.006450	-0.001893	0.899447	0.578119	0.022675	0.129715	-0.053599	-0.990102	-0.963334	-0.243332	-0.113036	-0.234865	0.968461	-0.083198
20097	-9.775340	-1.130380	-0.672095	0.000876	0.003359	-0.001570	0.893858	0.577835	0.030017	0.129675	-0.053642	-0.990105	-0.963342	-0.243323	-0.112987	-0.234854	0.968461	-0.083229
20098	-9.749380	-1.131130	-0.695454	0.003242	0.008799	0.002502	0.898254	0.575681	0.029194	0.129606	-0.053714	-0.990110	-0.963364	-0.243273	-0.112907	-0.234802	0.968469	-0.083276
20099	-9.696010	-1.126910	-0.818705	-0.004726	0.005273	0.000275	0.897517	0.577615	0.029760	0.129552	-0.053780	-0.990113	-0.963362	-0.243316	-0.112835	-0.234843	0.968455	-0.083332
20100	-9.691270	-1.150000	-0.813150	-0.002034	0.005915	0.000602	0.899259	0.570177	0.032906	0.129479	-0.053857	-0.990118	-0.963357	-0.243379	-0.112741	-0.234902	0.968435	-0.083396
20101	-9.719790	-1.131740	-0.820856	0.008626	0.010085	0.003155	0.892843	0.581008	0.023557	0.129409	-0.053977	-0.990121	-0.963389	-0.243291	-0.112652	-0.234807	0.968450	-0.083485
20102	-9.705240	-1.080260	-0.833193	0.011149	0.010621	0.000662	0.897728	0.578613	0.022723	0.129348	-0.054084	-0.990123	-0.963420	-0.243206	-0.112574	-0.234716	0.968466	-0.083564
20103	-9.708760	-1.079810	-0.733481	0.006100	0.009552	0.005650	0.896545	0.566377	0.023262	0.129252	-0.054205	-0.990129	-0.963450	-0.243142	-0.112458	-0.234646	0.968475	-0.083650
20104	-9.734660	-1.078850	-0.711480	0.005874	0.007737	-0.001239	0.894340	0.575438	0.029224	0.129136	-0.054237	-0.990143	-0.963497	-0.243003	-0.112350	-0.234515	0.968508	-0.083638
20105	-9.720670	-1.016170	-0.776802	0.000876	0.003359	-0.001569	0.898464	0.580917	0.026725	0.129095	-0.054280	-0.990146	-0.963505	-0.242994	-0.112300	-0.234503	0.968508	-0.083668
20106	-9.735670	-1.056000	-0.819323	-0.004945	0.008474	0.002771	0.895311	0.578797	0.031062	0.129043	-0.054359	-0.990148	-0.963500	-0.243051	-0.112227	-0.234556	0.968489	-0.083739
20107	-9.723620	-1.119570	-0.778029	0.000490	0.006452	-0.001892	0.897759	0.570908	0.026614	0.129013	-0.054431	-0.990148	-0.963506	-0.243045	-0.112181	-0.234544	0.968487	-0.083800
20108	-9.694990	-1.137730	-0.771850	0.005653	0.010938	0.001260	0.901663	0.577313	0.032212	0.128942	-0.054547	-0.990151	-0.963523	-0.243021	-0.112087	-0.234514	0.968486	-0.083893
20109	-9.734930	-1.067440	-0.768374	0.007302	0.008114	0.000337	0.899705	0.565748	0.021051	0.128894	-0.054641	-0.990152	-0.963549	-0.242948	-0.112024	-0.234435	0.968499	-0.083964
20110	-9.715690	-1.039200	-0.774430	0.001808	0.008428	0.000931	0.895580	0.570442	0.032724	0.128736	-0.054728	-0.990168	-0.963579	-0.242906	-0.111853	-0.234396	0.968505	-0.084006
20111	-9.753480	-1.107050	-0.711131	0.006148	0.006247	0.000335	0.905539	0.578548	0.025658	0.128683	-0.054804	-0.990170	-0.963603	-0.242844	-0.111789	-0.234331	0.968516	-0.084059
20112	-9.738350	-1.159410	-0.823671	0.008729	0.008491	0.001912	0.903856	0.580167	0.034767	0.128567	-0.054908	-0.990180	-0.963634	-0.242780	-0.111658	-0.234265	0.968526	-0.084125
20113	-9.711820	-1.171440	-0.794089	0.008121	0.014786	0.004087	0.898488	0.575111	0.032407	0.128498	-0.055075	-0.990179	-0.963666	-0.242697	-0.111558	-0.234170	0.968537	-0.084260
20114	-9.721110	-1.124970	-0.807507	0.008451	0.009984	0.000342	0.893373	0.575443	0.036351	0.128455	-0.055223	-0.990177	-0.963671	-0.242715	-0.111480	-0.234174	0.968525	-0.084395
20115	-9.765750	-1.031370	-0.810180	0.006202	0.007958	0.004406	0.899958	0.572428	0.032558	0.128367	-0.055325	-0.990182	-0.963699	-0.242650	-0.111376	-0.234106	0.968535	-0.084465
20116	-9.761040	-1.054170	-0.804869	0.003124	0.010408	0.003755	0.891339	0.584263	0.022276	0.128290	-0.055492	-0.990183	-0.963687	-0.242756	-0.111253	-0.234199	0.968499	-0.084620
20117	-9.753740	-1.094260	-0.769785	0.006201	0.007959	0.004407	0.906248	0.587442	0.030161	0.128202	-0.055594	-0.990189	-0.963715	-0.242691	-0.111148	-0.234131	0.968509	-0.084690
20118	-9.701790	-1.095520	-0.816100	0.000432	0.009766	0.003426	0.901642	0.580682	0.034333	0.128232	-0.055637	-0.990182	-0.963727	-0.242632	-0.111173	-0.234065	0.968522	-0.084732
20119	-9.673210	-1.113330	-0.809832	0.009001	0.007003	0.003488	0.891892	0.569140	0.028576	0.128151	-0.055728	-0.990188	-0.963761	-0.242541	-0.111080	-0.233971	0.968539	-0.084790
20120	-9.654000	-1.084930	-0.815614	0.006421	0.004758	0.001910	0.899928	0.578582	0.031584	0.128083	-0.055799	-0.990192	-0.963769	-0.242546	-0.110997	-0.233974	0.968534	-0.084843
20121	-9.686710	-1.054960	-0.776030	0.014105	0.009784	0.002576	0.903116	0.577964	0.035463	0.128017	-0.055915	-0.990195	-0.963813	-0.242407	-0.110918	-0.233828	0.968562	-0.084923
20122	-9.739550	-1.030150	-0.838207	0.014157	0.011497	0.006646	0.900426	0.575156	0.031955	0.127931	-0.056082	-0.990196	-0.963841	-0.242349	-0.110800	-0.233759	0.968567	-0.085058
20123	-9.760820	-1.052210	-0.810093	0.011524	0.007540	0.001000	0.895529	0.571244	0.024993	0.127875	-0.056172	-0.990198	-0.963878	-0.242235	-0.110734	-0.233641	0.968590	-0.085119
20124	-9.741120	-1.035280	-0.762616	0.008998	0.007006	0.003491	0.895019	0.575011	0.022206	0.127760	-0.056245	-0.990209	-0.963913	-0.242151	-0.110613	-0.233559	0.968607	-0.085153
20125	-9.741560	-1.023560	-0.816617	0.000817	0.006676	0.003749	0.900647	0.572990	0.024559	0.127675	-0.056334	-0.990215	-0.963927	-0.242140	-0.110511	-0.233545	0.968605	-0.085217
20126	-9.739410	-1.029350	-0.840853	0.000488	0.006455	-0.001892	0.909970	0.568515	0.034138	0.127608	-0.056335	-0.990223	-0.963958	-0.242045	-0.110453	-0.233457	0.968628	-0.085192
20127	-9.722280	-0.995241	-0.822956	0.001315	0.001980	0.002824	0.890161	0.574714	0.030042	0.127521	-0.056375	-0.990232	-0.963972	-0.242029	-0.110360	-0.233444	0.968630	-0.085208
20128	-9.706130	-1.070560	-0.828533	-0.005278	0.008260	-0.002876	0.894588	0.568461	0.034443	0.127452	-0.056488	-0.990235	-0.963954	-0.242150	-0.110256	-0.233557	0.968593	-0.085314
20129	-9.741500	-1.155560	-0.735375	0.003893	0.004227	0.004403	0.895533	0.568072	0.025146	0.127355	-0.056554	-0.990244	-0.963977	-0.242108	-0.110150	-0.233517	0.968600	-0.085351
20130	-9.732070	-1.069390	-0.806806	0.006418	0.004761	0.001914	0.890403	0.570923	0.026983	0.127227	-0.056619	-0.990256	-0.963997	-0.242090	-0.110011	-0.233503	0.968600	-0.085381
20131	-9.691520	-1.018750	-0.841458	0.002190	0.005341	0.001256	0.896285	0.569273	0.032525	0.127163	-0.056688	-0.990261	-0.964011	-0.242067	-0.109935	-0.233477	0.968602	-0.085430
20132	-9.714490	-1.046520	-0.735950	0.009219	0.003803	0.000996	0.898219	0.570661	0.028175	0.127082	-0.056730	-0.990269	-0.964031	-0.242026	-0.109850	-0.233439	0.968610	-0.085447
20133	-9.720440	-0.989111	-0.902655	0.009107	0.005406	0.002245	0.896752	0.571624	0.028463	0.127008	-0.056802	-0.990274	-0.964063	-0.241935	-0.109769	-0.233347	0.968628	-0.085489
20134	-9.708090	-1.064200	-0.807421	0.004939	0.002670	-0.003731	0.897963	0.575967	0.030086	0.126946	-0.056814	-0.990281	-0.964081	-0.241892	-0.109709	-0.233308	0.968639	-0.085480
20135	-9.786030	-1.061870	-0.739342	0.006916	0.000065	0.000990	0.905290	0.579741	0.034355	0.126871	-0.056832	-0.990290	-0.964106	-0.241823	-0.109639	-0.233244	0.968655	-0.085472
20136	-9.764690	-1.039480	-0.768551	0.003340	0.007212	0.001259	0.904759	0.581362	0.023426	0.126835	-0.056924	-0.990289	-0.964107	-0.241847	-0.109580	-0.233260	0.968643	-0.085555
20137	-9.738640	-1.040370	-0.791911	0.000488	0.006456	-0.001892	0.897957	0.576484	0.029383	0.126803	-0.056996	-0.990289	-0.964114	-0.241842	-0.109533	-0.233250	0.968640	-0.085617
20138	-9.712610	-1.041190	-0.815075	-0.002913	0.002561	0.002166	0.899159	0.580228	0.027321	0.126744	-0.056985	-0.990297	-0.964127	-0.241814	-0.109480	-0.233229	0.968648	-0.085590
20139	-9.760340	-1.051120	-0.817186	-0.005878	0.003408	0.000262	0.901900	0.564995	0.029934	0.126685	-0.057033	-0.990302	-0.964121	-0.241870	-0.109406	-0.233284	0.968631	-0.085628
20140	-9.725000	-1.098240	-0.827864	-0.000388	0.003095	-0.000324	0.905794	0.577183	0.037699	0.126590	-0.057059	-0.990313	-0.964133	-0.241869	-0.109307	-0.233288	0.968630	-0.085631
20141	-9.724550	-1.109590	-0.774976	0.006028	0.007858	0.001592	0.892841	0.570182	0.027721	0.126528	-0.057154	-0.990315	-0.964156	-0.241808	-0.109231	-0.233223	0.968639	-0.085701
20142	-9.684380	-1.047770	-0.862983	0.010592	0.002469	-0.001494	0.902141	0.571164	0.035055	0.126482	-0.057201	-0.990318	-0.964169	-0.241781	-0.109177	-0.233195	0.968643	-0.085733
20143	-9.693270	-1.012820	-0.822171	0.006691	0.003272	0.003488	0.895995	0.574647	0.026170	0.126392	-0.057256	-0.990327	-0.964197	-0.241713	-0.109082	-0.233129	0.968657	-0.085756
20144	-9.707380	-1.075360	-0.757884	0.002951	0.010308	0.000937	0.898692	0.576413	0.031603	0.126328	-0.057367	-0.990328	-0.964205	-0.241720	-0.108994	-0.233130	0.968649	-0.085850
20145	-9.733740	-1.063270	-0.788992	0.014930	0.000287	-0.002081	0.898204	0.574992	0.030334	0.126284	-0.057379	-0.990333	-0.964245	-0.241576	-0.108961	-0.232988	0.968684	-0.085835
20146	-9.711980	-1.052420	-0.764636	0.006414	0.004765	0.001917	0.896061	0.567084	0.039340	0.126241	-0.057431	-0.990336	-0.964256	-0.241556	-0.108908	-0.232967	0.968686	-0.085872
20147	-9.760090	-1.051090	-0.820186	0.002300	0.003741	0.000008	0.892363	0.571696	0.033173	0.126185	-0.057481	-0.990340	-0.964269	-0.241533	-0.108844	-0.232943	0.968689	-0.085905
20148	-9.742990	-1.016960	-0.802217	-0.001651	0.002828	0.000920	0.899167	0.578431	0.029979	0.126125	-0.057570	-0.990343	-0.964235	-0.241712	-0.108749	-0.233117	0.968639	-0.085997
20149	-9.781400	-1.073190	-0.792022	-0.005990	0.005011	0.001508	0.903843	0.572613	0.035861	0.126057	-0.057637	-0.990347	-0.964230	-0.241769	-0.108662	-0.233172	0.968621	-0.086052
20150	-9.755360	-1.073980	-0.815203	-0.004614	0.003674	-0.000985	0.897232	0.572074	0.030005	0.126022	-0.057692	-0.990348	-0.964209	-0.241879	-0.108605	-0.233279	0.968590	-0.086110
20151	-9.722170	-1.115140	-0.802161	-0.004064	0.000691	0.002160	0.904558	0.569711	0.028432	0.125938	-0.057719	-0.990358	-0.964210	-0.241917	-0.108514	-0.233321	0.968579	-0.086120
20152	-9.714590	-1.166630	-0.713297	0.000424	0.009776	0.003426	0.901860	0.574306	0.029591	0.125814	-0.057822	-0.990367	-0.964229	-0.241908	-0.108369	-0.233311	0.968575	-0.086189
20153	-9.700810	-1.092160	-0.832142	0.012340	0.003073	0.005728	0.896502	0.571308	0.030971	0.125701	-0.057881	-0.990378	-0.964272	-0.241784	-0.108257	-0.233192	0.968602	-0.086205
20154	-9.695560	-0.994239	-0.856324	0.003725	0.004120	0.001585	0.895038	0.575082	0.034539	0.125625	-0.057922	-0.990386	-0.964285	-0.241772	-0.108174	-0.233182	0.968603	-0.086226
20155	-9.716920	-1.016330	-0.827610	0.000162	0.000112	0.002821	0.894308	0.573633	0.034003	0.125533	-0.057944	-0.990396	-0.964296	-0.241768	-0.108080	-0.233183	0.968602	-0.086226
20156	-9.731490	-1.067400	-0.816296	0.005150	0.004499	0.003163	0.902616	0.567199	0.030324	0.125513	-0.058013	-0.990394	-0.964284	-0.241835	-0.108039	-0.233244	0.968582	-0.086295
20157	-9.702980	-1.085110	-0.809573	0.005312	0.004612	0.005984	0.901652	0.571058	0.038292	0.125402	-0.058087	-0.990404	-0.964311	-0.241779	-0.107918	-0.233191	0.968591	-0.086334
20158	-9.728630	-1.095260	-0.733775	0.002575	0.002250	0.001581	0.892584	0.572353	0.028846	0.125273	-0.058164	-0.990416	-0.964315	-0.241833	-0.107769	-0.233247	0.968573	-0.086383
20159	-9.750400	-1.105850	-0.758308	0.001861	-0.001000	0.005971	0.902133	0.567370	0.032301	0.125148	-0.058184	-0.990431	-0.964334	-0.241811	-0.107645	-0.233234	0.968577	-0.086371
20160	-9.733740	-1.059700	-0.793808	-0.004630	0.008713	0.008402	0.901164	0.567976	0.035753	0.125007	-0.058290	-0.990442	-0.964334	-0.241888	-0.107476	-0.233311	0.968552	-0.086448
20161	-9.727000	-1.087980	-0.811678	0.004435	0.001250	0.007553	0.910431	0.572596	0.037118	0.124872	-0.058335	-0.990456	-0.964361	-0.241840	-0.107338	-0.233270	0.968561	-0.086455
20162	-9.731700	-1.064310	-0.817931	0.012450	0.001470	0.004483	0.899671	0.572514	0.031782	0.124713	-0.058430	-0.990471	-0.964386	-0.241817	-0.107163	-0.233251	0.968561	-0.086507
20163	-9.719290	-1.006560	-0.806024	0.010960	0.004413	0.008224	0.900919	0.559721	0.027651	0.124579	-0.058508	-0.990483	-0.964429	-0.241706	-0.107025	-0.233144	0.968584	-0.086538
20164	-9.721830	-0.988674	-0.836140	0.009535	0.004035	0.006648	0.900918	0.567750	0.035279	0.124383	-0.058572	-0.990504	-0.964475	-0.241611	-0.106827	-0.233059	0.968604	-0.086544
20165	-9.705130	-0.942632	-0.871537	0.005583	0.003123	0.007559	0.899446	0.569227	0.034856	0.124252	-0.058636	-0.990517	-0.964505	-0.241552	-0.106690	-0.233006	0.968615	-0.086568
20166	-9.743280	-1.009840	-0.807723	0.001311	0.001984	0.002826	0.898462	0.569774	0.033173	0.124139	-0.058709	-0.990526	-0.964497	-0.241643	-0.106555	-0.233098	0.968588	-0.086622
20167	-9.729410	-1.078850	-0.789128	0.007233	0.000294	0.006640	0.902832	0.573599	0.029150	0.124011	-0.058743	-0.990541	-0.964530	-0.241569	-0.106428	-0.233032	0.968604	-0.086617
20168	-9.740890	-1.026120	-0.777837	0.004659	-0.001956	0.005058	0.904085	0.567830	0.033338	0.123892	-0.058738	-0.990556	-0.964545	-0.241557	-0.106315	-0.233031	0.968607	-0.086582
20169	-9.764800	-1.030600	-0.778933	-0.001716	0.006154	0.006238	0.901644	0.569695	0.035619	0.123781	-0.058828	-0.990564	-0.964556	-0.241570	-0.106185	-0.233044	0.968599	-0.086644
20170	-9.736680	-1.036780	-0.825654	-0.004017	0.002413	0.006229	0.903598	0.567794	0.034327	0.123624	-0.058910	-0.990579	-0.964547	-0.241686	-0.106002	-0.233165	0.968565	-0.086700
20171	-9.731760	-1.070660	-0.766092	-0.000830	-0.001642	0.005639	0.898448	0.568027	0.027518	0.123500	-0.058923	-0.990594	-0.964560	-0.241691	-0.105878	-0.233179	0.968562	-0.086684
20172	-9.741080	-1.023740	-0.778566	0.002895	0.002479	0.007226	0.897713	0.569950	0.028329	0.123331	-0.058974	-0.990612	-0.964581	-0.241683	-0.105702	-0.233180	0.968562	-0.086692
20173	-9.679850	-1.071150	-0.811695	0.002894	0.002479	0.007226	0.896997	0.566939	0.030426	0.123202	-0.059031	-0.990624	-0.964604	-0.241651	-0.105566	-0.233154	0.968566	-0.086713
20174	-9.657830	-1.070730	-0.734124	0.009579	0.005756	0.010721	0.896738	0.572516	0.031615	0.123041	-0.059095	-0.990641	-0.964642	-0.241569	-0.105402	-0.233079	0.968583	-0.086729
20175	-9.719170	-1.021830	-0.701626	0.014906	0.005327	0.007319	0.897967	0.574068	0.036070	0.122917	-0.059180	-0.990651	-0.964693	-0.241421	-0.105275	-0.232933	0.968614	-0.086765
20176	-9.700620	-0.970533	-0.813993	0.006957	0.001786	0.005069	0.905040	0.567788	0.028004	0.122876	-0.059213	-0.990654	-0.964689	-0.241461	-0.105223	-0.232973	0.968602	-0.086792
20177	-9.789420	-1.019090	-0.835029	-0.003632	-0.000680	0.006554	0.903842	0.561422	0.028269	0.122746	-0.059237	-0.990669	-0.964696	-0.241492	-0.105088	-0.233014	0.968593	-0.086788
20178	-9.775630	-1.087760	-0.816605	-0.006932	0.004982	0.008392	0.899391	0.574510	0.024128	0.122511	-0.059305	-0.990694	-0.964719	-0.241508	-0.104841	-0.233043	0.968585	-0.086800
20179	-9.775690	-1.086930	-0.817037	-0.002595	0.002797	0.007808	0.898960	0.564203	0.032064	0.122376	-0.059367	-0.990707	-0.964729	-0.241529	-0.104694	-0.233069	0.968576	-0.086830
20180	-9.747270	-1.104160	-0.810287	-0.001286	0.004783	0.010635	0.894782	0.571084	0.030626	0.122219	-0.059407	-0.990724	-0.964748	-0.241526	-0.104532	-0.233075	0.968574	-0.086832
20181	-9.780470	-1.061770	-0.823883	0.007546	0.000526	0.012289	0.898226	0.568920	0.036651	0.122036	-0.059457	-0.990743	-0.964788	-0.241446	-0.104349	-0.233006	0.968591	-0.086828
20182	-9.720320	-0.993223	-0.810139	0.006054	0.003475	0.016031	0.903103	0.568998	0.034936	0.121874	-0.059535	-0.990758	-0.964798	-0.241483	-0.104170	-0.233050	0.968577	-0.086870
20183	-9.665620	-1.022190	-0.772507	0.001943	0.002451	0.014119	0.906750	0.570345	0.031806	0.121678	-0.059608	-0.990778	-0.964827	-0.241457	-0.103964	-0.233033	0.968579	-0.086892
20184	-9.690510	-1.146510	-0.743486	0.004516	0.004703	0.015703	0.899930	0.567552	0.034177	0.121458	-0.059714	-0.990799	-0.964851	-0.241462	-0.103725	-0.233046	0.968571	-0.086943
20185	-9.697700	-1.104750	-0.779821	0.010116	0.002780	0.013876	0.894812	0.562953	0.032568	0.121266	-0.059790	-0.990818	-0.964898	-0.241356	-0.103529	-0.232950	0.968593	-0.086959
20186	-9.700300	-1.086120	-0.809823	0.012959	0.003543	0.017035	0.900160	0.563926	0.026487	0.121044	-0.059882	-0.990839	-0.964935	-0.241310	-0.103296	-0.232913	0.968599	-0.086992
20187	-9.707490	-1.044190	-0.846043	0.017179	0.002964	0.017702	0.895053	0.566759	0.035411	0.120815	-0.059969	-0.990862	-0.965003	-0.241133	-0.103068	-0.232749	0.968637	-0.087003
20188	-9.738270	-1.018490	-0.829661	0.018712	0.001741	0.018034	0.894313	0.568491	0.034753	0.120578	-0.060024	-0.990888	-0.965064	-0.240990	-0.102837	-0.232621	0.968670	-0.086985
20189	-9.709970	-1.035070	-0.822560	0.019860	0.003615	0.018041	0.891128	0.566943	0.030073	0.120347	-0.060118	-0.990910	-0.965139	-0.240787	-0.102609	-0.232430	0.968714	-0.087000
20190	-9.721120	-0.992423	-0.758210	0.018592	0.003355	0.019287	0.902098	0.569525	0.027210	0.120178	-0.060183	-0.990926	-0.965177	-0.240707	-0.102435	-0.232358	0.968730	-0.087015
20191	-9.714600	-1.019670	-0.775643	0.013374	0.002188	0.021442	0.901905	0.559750	0.033948	0.119910	-0.060272	-0.990953	-0.965241	-0.240566	-0.102167	-0.232231	0.968760	-0.087023
20192	-9.749940	-0.970590	-0.765476	0.010643	-0.000182	0.017036	0.903587	0.563601	0.028962	0.119651	-0.060313	-0.990982	-0.965290	-0.240478	-0.101913	-0.232163	0.968779	-0.086993
20193	-9.785810	-0.899131	-0.862334	0.004661	0.004843	0.018535	0.896760	0.563473	0.031920	0.119418	-0.060419	-0.991004	-0.965329	-0.240423	-0.101666	-0.232117	0.968786	-0.087035
20194	-9.740590	-0.870394	-0.890495	-0.001638	-0.001531	0.015363	0.897225	0.568686	0.029675	0.119180	-0.060440	-0.991031	-0.965344	-0.240464	-0.101425	-0.232177	0.968775	-0.087004
20195	-9.781540	-0.919168	-0.856062	0.006532	-0.001206	0.015123	0.900943	0.559583	0.038378	0.118966	-0.060480	-0.991055	-0.965384	-0.240393	-0.101214	-0.232121	0.968790	-0.086985
20196	-9.760210	-0.895734	-0.884762	0.010595	-0.001907	0.012966	0.894803	0.559051	0.025681	0.118783	-0.060516	-0.991074	-0.965405	-0.240389	-0.101028	-0.232130	0.968788	-0.086977
20197	-9.731910	-0.912730	-0.877322	0.002424	-0.002230	0.013208	0.899664	0.570389	0.029997	0.118585	-0.060542	-0.991097	-0.965433	-0.240359	-0.100832	-0.232114	0.968794	-0.086952
20198	-9.755650	-0.927719	-0.824588	-0.005903	-0.002673	0.010624	0.899193	0.560544	0.025247	0.118429	-0.060504	-0.991118	-0.965432	-0.240424	-0.100683	-0.232197	0.968780	-0.086885
20199	-9.770610	-0.977725	-0.812615	-0.005367	-0.005647	0.013777	0.907978	0.567449	0.030855	0.118217	-0.060497	-0.991143	-0.965443	-0.240469	-0.100474	-0.232261	0.968770	-0.086834
20200	-9.768390	-0.993566	-0.782077	0.000497	-0.009064	0.013529	0.900164	0.569345	0.031690	0.117969	-0.060422	-0.991177	-0.965473	-0.240441	-0.100252	-0.232262	0.968781	-0.086701
20201	-9.749480	-0.953099	-0.840266	-0.000420	-0.002993	0.010049	0.900901	0.569536	0.033167	0.117800	-0.060432	-0.991197	-0.965490	-0.240440	-0.100085	-0.232275	0.968781	-0.086671
20202	-9.709070	-0.890667	-0.927435	-0.003879	-0.008600	0.010037	0.905546	0.568562	0.033368	0.117689	-0.060365	-0.991214	-0.965469	-0.240569	-0.099982	-0.232420	0.968753	-0.086593
20203	-9.741620	-0.870805	-0.833102	-0.009140	-0.011494	0.008118	0.901614	0.566047	0.021568	0.117519	-0.060289	-0.991239	-0.965464	-0.240654	-0.099826	-0.232527	0.968737	-0.086488
20204	-9.711240	-0.894065	-0.848494	-0.007720	-0.011111	0.009699	0.899695	0.560726	0.026517	0.117348	-0.060167	-0.991267	-0.965463	-0.240717	-0.099683	-0.232617	0.968729	-0.086337
20205	-9.735010	-0.909302	-0.795019	-0.010675	-0.010265	0.007789	0.904594	0.563859	0.034685	0.117184	-0.060101	-0.991290	-0.965454	-0.240817	-0.099529	-0.232737	0.968708	-0.086245
20206	-9.734870	-0.919574	-0.740704	-0.010521	-0.010142	0.010615	0.906318	0.555708	0.030479	0.116975	-0.060033	-0.991319	-0.965440	-0.240954	-0.099330	-0.232899	0.968678	-0.086144
20207	-9.697520	-0.983440	-0.720167	-0.008301	-0.009863	0.002474	0.905800	0.564557	0.028854	0.116863	-0.059958	-0.991336	-0.965430	-0.241034	-0.099231	-0.232996	0.968663	-0.086053
20208	-9.719120	-1.005050	-0.690286	-0.007880	-0.011228	0.006876	0.909255	0.558503	0.034247	0.116638	-0.059877	-0.991368	-0.965433	-0.241108	-0.099024	-0.233098	0.968649	-0.085929
20209	-9.723780	-0.981059	-0.695830	-0.008482	-0.004916	0.009048	0.907491	0.569281	0.026591	0.116474	-0.059866	-0.991388	-0.965430	-0.241186	-0.098860	-0.233191	0.968631	-0.085888
20210	-9.729070	-0.934608	-0.808339	-0.009681	-0.008512	0.004970	0.902622	0.569590	0.031019	0.116305	-0.059804	-0.991411	-0.965419	-0.241296	-0.098700	-0.233321	0.968607	-0.085799
20211	-9.727090	-0.939879	-0.831204	-0.019122	-0.009086	0.006464	0.895836	0.554403	0.031468	0.116156	-0.059746	-0.991432	-0.965389	-0.241479	-0.098552	-0.233522	0.968565	-0.085728
20212	-9.744510	-0.973103	-0.848741	-0.019124	-0.009084	0.006466	0.901920	0.559605	0.029935	0.116023	-0.059674	-0.991452	-0.965338	-0.241736	-0.098417	-0.233797	0.968505	-0.085653
20213	-9.783420	-1.028360	-0.837251	-0.011950	-0.010516	0.009041	0.895813	0.563423	0.031810	0.115846	-0.059609	-0.991477	-0.965327	-0.241848	-0.098250	-0.233930	0.968481	-0.085559
20214	-9.748220	-1.086150	-0.793179	0.000178	-0.009302	0.007879	0.902392	0.556324	0.019321	0.115699	-0.059534	-0.991499	-0.965324	-0.241912	-0.098119	-0.234014	0.968470	-0.085459
20215	-9.751960	-0.929945	-0.882156	0.008664	-0.008748	0.013282	0.899471	0.562586	0.028117	0.115485	-0.059497	-0.991526	-0.965367	-0.241822	-0.097927	-0.233946	0.968495	-0.085363
20216	-9.762310	-0.744717	-0.953411	0.011903	-0.016145	0.007368	0.898772	0.562925	0.038642	0.115271	-0.059303	-0.991562	-0.965426	-0.241643	-0.097781	-0.233805	0.968551	-0.085107
20217	-9.779460	-0.789309	-0.916794	0.000552	-0.012393	0.008209	0.897309	0.559860	0.035364	0.115098	-0.059218	-0.991587	-0.965443	-0.241634	-0.097633	-0.233820	0.968559	-0.084983
20218	-9.772690	-0.829086	-0.879327	0.006258	-0.015936	0.005127	0.902404	0.563834	0.027192	0.114996	-0.059128	-0.991605	-0.965422	-0.241755	-0.097544	-0.233958	0.968534	-0.084884
20219	-9.764200	-0.863764	-0.918649	0.004834	-0.016315	0.003549	0.898543	0.557421	0.035036	0.114859	-0.058994	-0.991629	-0.965444	-0.241708	-0.097446	-0.233936	0.968554	-0.084717
20220	-9.733920	-0.887680	-0.933295	-0.002856	-0.021326	0.002881	0.911933	0.564563	0.027688	0.114725	-0.058804	-0.991655	-0.965427	-0.241811	-0.097351	-0.234069	0.968540	-0.084513
20221	-9.729230	-0.921884	-0.871543	-0.000060	-0.022292	0.001965	0.904379	0.568411	0.035185	0.114589	-0.058608	-0.991683	-0.965436	-0.241813	-0.097265	-0.234101	0.968551	-0.084291
20222	-9.722470	-0.962094	-0.833306	-0.002751	-0.022929	0.001635	0.907072	0.562021	0.029572	0.114477	-0.058402	-0.991708	-0.965419	-0.241907	-0.097196	-0.234225	0.968540	-0.084075
20223	-9.768060	-0.988646	-0.802887	-0.006284	-0.025189	0.006957	0.897570	0.560177	0.032225	0.114286	-0.058190	-0.991742	-0.965418	-0.241966	-0.097055	-0.234320	0.968538	-0.083831
20224	-9.768300	-0.988252	-0.800400	-0.006494	-0.027035	0.000058	0.902197	0.561336	0.027371	0.114164	-0.057944	-0.991771	-0.965391	-0.242106	-0.096983	-0.234494	0.968518	-0.083579
20225	-9.746670	-0.977137	-0.773467	-0.020001	-0.026891	0.003733	0.902181	0.566296	0.025115	0.114000	-0.057708	-0.991803	-0.965354	-0.242300	-0.096862	-0.234724	0.968484	-0.083331
20226	-9.741960	-1.010950	-0.711359	-0.018315	-0.027991	0.006892	0.905614	0.559826	0.021698	0.113830	-0.057419	-0.991840	-0.965316	-0.242497	-0.096747	-0.234963	0.968452	-0.083031
20227	-9.702720	-1.080730	-0.713011	-0.022542	-0.027397	0.006237	0.898321	0.560414	0.031520	0.113640	-0.057184	-0.991875	-0.965276	-0.242714	-0.096599	-0.235218	0.968411	-0.082781
20228	-9.711330	-1.160210	-0.716378	-0.014211	-0.026964	0.008805	0.897048	0.568419	0.019364	0.113421	-0.056927	-0.991915	-0.965254	-0.242868	-0.096434	-0.235415	0.968387	-0.082496
20229	-9.671330	-1.097620	-0.801801	0.003352	-0.022758	0.012355	0.901997	0.554712	0.026916	0.113183	-0.056752	-0.991952	-0.965282	-0.242831	-0.096247	-0.235415	0.968407	-0.082266
20230	-9.642430	-0.982507	-0.876108	0.007731	-0.023223	0.015840	0.901721	0.559633	0.019044	0.112932	-0.056508	-0.991995	-0.965322	-0.242743	-0.096068	-0.235371	0.968443	-0.081962
20231	-9.688100	-1.008110	-0.845500	0.005143	-0.025462	0.014266	0.899035	0.568176	0.025480	0.112669	-0.056311	-0.992036	-0.965356	-0.242688	-0.095863	-0.235357	0.968469	-0.081704
20232	-9.719160	-1.126090	-0.689021	0.013898	-0.031453	0.011834	0.906890	0.555727	0.025496	0.112461	-0.055967	-0.992079	-0.965403	-0.242544	-0.095754	-0.235264	0.968525	-0.081307
20233	-9.778350	-1.082220	-0.676557	0.021543	-0.023115	0.017813	0.901249	0.563861	0.022888	0.112170	-0.055801	-0.992121	-0.965480	-0.242328	-0.095528	-0.235088	0.968588	-0.081056
20234	-9.782420	-0.925291	-0.763861	0.008246	-0.026172	0.019010	0.893209	0.557094	0.019986	0.111848	-0.055570	-0.992170	-0.965526	-0.242242	-0.095277	-0.235050	0.968623	-0.080749
20235	-9.746530	-0.850181	-0.801711	0.003230	-0.030528	0.018692	0.901049	0.557082	0.027301	0.111531	-0.055334	-0.992219	-0.965561	-0.242202	-0.095028	-0.235060	0.968647	-0.080442
20236	-9.766340	-0.876437	-0.793295	-0.003686	-0.030569	0.017715	0.914231	0.556738	0.024084	0.111238	-0.055050	-0.992268	-0.965568	-0.242263	-0.094804	-0.235171	0.968648	-0.080103
20237	-9.731260	-0.933548	-0.747314	0.000368	-0.031276	0.015546	0.906442	0.550848	0.023900	0.110950	-0.054799	-0.992314	-0.965592	-0.242253	-0.094584	-0.235208	0.968664	-0.079791
20238	-9.687920	-1.053470	-0.558506	0.002111	-0.030645	0.022781	0.902772	0.558066	0.026384	0.110491	-0.054574	-0.992378	-0.965645	-0.242191	-0.094196	-0.235204	0.968693	-0.079459
20239	-9.607030	-1.210050	-0.534322	0.011018	-0.027118	0.018100	0.900566	0.557532	0.020517	0.110188	-0.054369	-0.992423	-0.965697	-0.242077	-0.093958	-0.235134	0.968733	-0.079178
20240	-9.646070	-1.093050	-0.841564	0.022040	-0.026053	0.020981	0.899113	0.559562	0.024758	0.109868	-0.054147	-0.992470	-0.965768	-0.241888	-0.093715	-0.234992	0.968792	-0.078870
20241	-9.672880	-0.935394	-1.006240	0.006415	-0.032819	0.022203	0.906186	0.562109	0.022154	0.109511	-0.053898	-0.992523	-0.965813	-0.241816	-0.093433	-0.234972	0.968824	-0.078537
20242	-9.779340	-0.911674	-0.941064	0.017739	-0.036567	0.021340	0.907179	0.556794	0.020257	0.109198	-0.053572	-0.992575	-0.965867	-0.241687	-0.093216	-0.234898	0.968874	-0.078135
20243	-9.816580	-0.856197	-0.903327	0.036829	-0.033591	0.025191	0.908874	0.562015	0.017523	0.108811	-0.053321	-0.992631	-0.965986	-0.241319	-0.092928	-0.234586	0.968980	-0.077766
20244	-9.770060	-0.976404	-0.814535	0.055749	-0.030735	0.026216	0.909371	0.564112	0.020052	0.108409	-0.053044	-0.992690	-0.966159	-0.240735	-0.092648	-0.234061	0.969140	-0.077347
20245	-9.742190	-0.992710	-0.803657	0.077006	-0.036863	0.027001	0.904259	0.560711	0.018731	0.107997	-0.052766	-0.992750	-0.966374	-0.239977	-0.092373	-0.233363	0.969343	-0.076908
20246	-9.735480	-0.745193	-1.037970	0.077171	-0.040039	0.024535	0.904540	0.557509	0.025708	0.107643	-0.052395	-0.992808	-0.966578	-0.239232	-0.092174	-0.232682	0.969548	-0.076396
20247	-9.751310	-0.525254	-1.166010	0.062629	-0.046654	0.021710	0.908904	0.558989	0.011834	0.107260	-0.052009	-0.992870	-0.966752	-0.238616	-0.091939	-0.232133	0.969720	-0.075873
20248	-9.894770	-0.563937	-1.111460	0.040671	-0.050382	0.014738	0.912357	0.562671	0.024427	0.106945	-0.051537	-0.992928	-0.966863	-0.238229	-0.091772	-0.231815	0.969841	-0.075307
20249	-9.915980	-0.595852	-1.022940	0.042084	-0.062682	0.016119	0.905019	0.559461	0.010901	0.106579	-0.050981	-0.992996	-0.966984	-0.237816	-0.091577	-0.231481	0.969971	-0.074644
20250	-9.887260	-0.750765	-0.948679	0.030141	-0.067065	0.014866	0.906775	0.551935	0.015759	0.106247	-0.050346	-0.993064	-0.967067	-0.237537	-0.091423	-0.231287	0.970073	-0.073925
20251	-9.833660	-0.895803	-0.950439	0.026524	-0.071007	0.016162	0.910428	0.556952	0.011788	0.105862	-0.049709	-0.993138	-0.967151	-0.237274	-0.091215	-0.231112	0.970170	-0.073194
20252	-9.762490	-1.006690	-0.933997	0.025593	-0.074309	0.017781	0.910909	0.566441	0.012144	0.105415	-0.049010	-0.993220	-0.967245	-0.236986	-0.090964	-0.230921	0.970276	-0.072387
20253	-9.691590	-0.990775	-0.924462	0.019635	-0.081958	0.019114	0.908033	0.556494	0.015951	0.104976	-0.048274	-0.993302	-0.967316	-0.236789	-0.090722	-0.230824	0.970361	-0.071553
20254	-9.670110	-0.994178	-0.761717	0.022292	-0.081288	0.019454	0.906354	0.552983	0.017548	0.104577	-0.047507	-0.993381	-0.967386	-0.236579	-0.090527	-0.230713	0.970450	-0.070698
20255	-9.647210	-1.135040	-0.537815	0.042133	-0.086015	0.022732	0.906344	0.561120	0.014681	0.104094	-0.046739	-0.993469	-0.967512	-0.236163	-0.090264	-0.230401	0.970589	-0.069804
20256	-9.642440	-0.893265	-0.691939	0.055275	-0.081318	0.022746	0.917557	0.557815	-0.001828	0.103658	-0.046023	-0.993548	-0.967650	-0.235683	-0.090039	-0.230018	0.970740	-0.068964
20257	-9.649040	-0.583767	-0.965460	0.037117	-0.095222	0.015977	0.911761	0.558134	0.014821	0.103220	-0.045149	-0.993633	-0.967757	-0.235318	-0.089839	-0.229764	0.970869	-0.067983
20258	-9.684120	-0.529897	-1.022670	-0.002430	-0.096467	0.016259	0.909571	0.553078	0.005124	0.102750	-0.044211	-0.993724	-0.967790	-0.235274	-0.089601	-0.229837	0.970923	-0.066961
20259	-9.779690	-0.685159	-0.953444	-0.013970	-0.108837	0.008879	0.909086	0.557774	0.002617	0.102349	-0.043188	-0.993811	-0.967772	-0.235409	-0.089437	-0.230090	0.970936	-0.065890
20260	-9.804650	-0.815593	-0.935599	-0.015108	-0.112236	0.007702	0.907178	0.554589	0.008377	0.101938	-0.042065	-0.993901	-0.967764	-0.235502	-0.089290	-0.230309	0.970963	-0.064716
20261	-9.779080	-0.958494	-0.809594	-0.003632	-0.117370	0.008442	0.919394	0.554548	0.002486	0.101521	-0.040959	-0.993990	-0.967769	-0.235537	-0.089137	-0.230470	0.971002	-0.063550
20262	-9.715800	-1.034470	-0.748545	0.016008	-0.118854	0.014163	0.908924	0.557043	0.006035	0.101012	-0.039835	-0.994087	-0.967837	-0.235344	-0.088914	-0.230410	0.971096	-0.062326
20263	-9.740800	-0.906597	-0.821583	0.025696	-0.121299	0.012978	0.914317	0.557536	0.005070	0.100542	-0.038700	-0.994180	-0.967914	-0.235092	-0.088735	-0.230290	0.971202	-0.061095
20264	-9.780820	-0.839438	-0.728092	0.020172	-0.120901	0.013658	0.910192	0.563188	0.009450	0.100086	-0.037565	-0.994269	-0.967975	-0.234906	-0.088564	-0.230233	0.971292	-0.059873
20265	-9.867090	-0.787585	-0.658397	0.023657	-0.126178	0.017554	0.910942	0.551404	-0.003433	0.099560	-0.036394	-0.994366	-0.968052	-0.234674	-0.088337	-0.230137	0.971393	-0.058595
20266	-9.942780	-0.661526	-0.606935	0.020452	-0.125420	0.012884	0.914146	0.558192	0.003657	0.099112	-0.035208	-0.994453	-0.968110	-0.234492	-0.088185	-0.230087	0.971480	-0.057326
20267	-10.060600	-0.569625	-0.650062	0.021898	-0.126560	0.013264	0.908549	0.558263	0.000262	0.098628	-0.034022	-0.994543	-0.968178	-0.234279	-0.087999	-0.230007	0.971574	-0.056046
20268	-10.392300	-0.269820	-0.910837	0.023414	-0.129293	0.012413	0.917366	0.552524	-0.003873	0.098188	-0.032809	-0.994627	-0.968237	-0.234088	-0.087862	-0.229948	0.971662	-0.054751
20269	-11.091200	0.385532	-1.587390	0.034254	-0.129875	0.011175	0.918120	0.558490	-0.001205	0.097717	-0.031586	-0.994713	-0.968332	-0.233756	-0.087703	-0.229750	0.971782	-0.053427
20270	-11.367100	0.767260	-1.586070	0.031468	-0.136351	0.021431	0.913738	0.559860	-0.006750	0.097105	-0.030335	-0.994812	-0.968440	-0.233417	-0.087414	-0.229555	0.971903	-0.052044
20271	-11.279600	-0.580285	-0.734069	0.076609	-0.113727	0.053270	0.918387	0.554575	-0.016707	0.096264	-0.029367	-0.994923	-0.968672	-0.232661	-0.086857	-0.228929	0.972114	-0.050843
20272	-10.810200	-1.837240	-0.036048	0.279015	-0.065770	0.121623	0.918432	0.557730	-0.003602	0.094859	-0.028955	-0.995070	-0.969445	-0.229840	-0.085728	-0.226224	0.972798	-0.049873
20273	-10.185300	-1.595420	0.075360	0.481451	-0.044505	0.163875	0.923061	0.554535	-0.016870	0.093105	-0.028907	-0.995237	-0.970682	-0.225110	-0.084269	-0.221602	0.973904	-0.049018
20274	-9.692060	-1.056330	-0.232396	0.544187	-0.030854	0.179076	0.910131	0.557190	-0.017172	0.091232	-0.029014	-0.995407	-0.972049	-0.219734	-0.082687	-0.216326	0.975128	-0.048250
20275	-9.334730	0.205971	-0.172653	0.488761	-0.031378	0.179858	0.919193	0.549123	-0.017188	0.089351	-0.029111	-0.995575	-0.973262	-0.214917	-0.081064	-0.211607	0.976198	-0.047535
20276	-9.119500	3.056490	1.350380	0.127636	-0.021806	0.123596	0.923092	0.558389	-0.016813	0.088085	-0.029138	-0.995687	-0.973637	-0.213659	-0.079882	-0.210410	0.976474	-0.047190
20277	-8.730670	-1.296190	-1.533160	0.117444	-0.074110	0.124271	0.921182	0.545581	-0.014791	0.086655	-0.028690	-0.995825	-0.973996	-0.212480	-0.078634	-0.209337	0.976744	-0.046356
20278	-9.243810	2.363510	2.902590	-0.400478	-0.068658	0.080221	0.921214	0.541654	-0.008058	0.085701	-0.028224	-0.995921	-0.973212	-0.216412	-0.077614	-0.213338	0.975894	-0.046014
20279	-9.746620	-0.181619	0.685317	-0.080005	-0.095092	0.071081	0.921457	0.542903	-0.016290	0.084741	-0.027461	-0.996024	-0.973106	-0.217177	-0.076804	-0.214204	0.975746	-0.045127
20280	-10.335600	0.063121	0.930636	-0.634963	-0.103759	0.061037	0.929275	0.547094	-0.017585	0.083830	-0.026665	-0.996123	-0.971773	-0.223409	-0.075800	-0.220522	0.974360	-0.044641
20281	-10.591600	0.519047	1.086290	-0.543857	-0.109433	0.052684	0.923950	0.546321	-0.004135	0.083009	-0.025731	-0.996217	-0.970607	-0.228696	-0.074969	-0.225901	0.973158	-0.043958
20282	-10.480800	0.430104	-0.058547	-0.688228	-0.108638	0.059508	0.920560	0.537725	-0.003677	0.082108	-0.024853	-0.996314	-0.969070	-0.235434	-0.073990	-0.232727	0.971573	-0.043415
20283	-10.384400	0.840547	-0.722113	-0.809655	-0.120161	0.061945	0.924719	0.547581	0.000133	0.081159	-0.023848	-0.996416	-0.967208	-0.243282	-0.072958	-0.240670	0.969662	-0.042811
20284	-10.153600	1.215510	-0.857424	-0.812117	-0.130314	0.089611	0.919118	0.544288	-0.004328	0.079907	-0.022889	-0.996539	-0.965274	-0.251228	-0.071630	-0.248719	0.967657	-0.042169
20285	-10.169100	0.778918	-0.702588	-0.767807	-0.112582	0.149544	0.929877	0.542815	-0.004338	0.078117	-0.022196	-0.996697	-0.963457	-0.258621	-0.069752	-0.256219	0.965724	-0.041588
20286	-10.052200	0.570174	-0.679853	-0.662701	-0.073741	0.209603	0.925750	0.539920	0.000779	0.075828	-0.022004	-0.996878	-0.961892	-0.265014	-0.067317	-0.262706	0.963993	-0.041261
20287	-9.706980	0.187782	-1.067200	-0.504206	-0.030990	0.292869	0.924041	0.545669	0.003792	0.072867	-0.022504	-0.997088	-0.960776	-0.269812	-0.064123	-0.267583	0.962650	-0.041282
20288	-9.280690	0.341626	-1.101930	-0.293064	0.025672	0.381254	0.931858	0.537613	0.004354	0.069239	-0.023745	-0.997318	-0.960236	-0.272628	-0.060173	-0.270468	0.961826	-0.041677
20289	-8.907040	1.986640	-1.592030	-0.300575	0.098857	0.457057	0.926731	0.527936	0.009301	0.065056	-0.025963	-0.997544	-0.959728	-0.275410	-0.055422	-0.273294	0.960976	-0.042834
20290	-8.765140	3.655800	-2.160550	-0.548426	0.168409	0.521204	0.933045	0.529109	0.012701	0.060457	-0.029016	-0.997749	-0.958529	-0.280589	-0.049920	-0.278509	0.959389	-0.044776
20291	-9.031280	2.912140	-2.644960	-0.848537	0.229775	0.575897	0.941090	0.517716	0.033007	0.055528	-0.032872	-0.997916	-0.956468	-0.288546	-0.043717	-0.286507	0.956902	-0.047464
20292	-8.962660	2.987080	-1.818930	-0.840106	0.274560	0.643612	0.929805	0.513410	0.032848	0.050129	-0.037468	-0.998040	-0.954350	-0.296413	-0.036807	-0.294453	0.954325	-0.050616
20293	-9.029580	2.830060	-1.529630	-0.899029	0.308369	0.709293	0.939516	0.507716	0.038511	0.044226	-0.042555	-0.998115	-0.952001	-0.304701	-0.029192	-0.302884	0.951497	-0.053988
20294	-9.117120	3.020480	-1.532720	-0.882855	0.337052	0.772495	0.935562	0.495362	0.045422	0.037909	-0.048202	-0.998118	-0.949574	-0.312841	-0.020957	-0.311242	0.948582	-0.057630
20295	-9.178930	3.062920	-1.582590	-0.888308	0.347342	0.841452	0.945749	0.490520	0.054831	0.030962	-0.054176	-0.998051	-0.947062	-0.320827	-0.011965	-0.319553	0.945587	-0.061241
20296	-9.237380	3.040790	-1.323550	-0.958914	0.351709	0.892734	0.950317	0.485486	0.062546	0.023633	-0.060469	-0.997890	-0.944172	-0.329444	-0.002398	-0.328604	0.942237	-0.064879
20297	-9.344610	2.835770	-1.261370	-1.019690	0.357822	0.947736	0.946584	0.480601	0.065641	0.015831	-0.067019	-0.997626	-0.940959	-0.338432	0.007804	-0.338152	0.938601	-0.068419
20298	-9.542620	2.475660	-1.061970	-1.019820	0.347716	0.985404	0.951661	0.469494	0.065596	0.007817	-0.073655	-0.997253	-0.937532	-0.347418	0.018311	-0.347812	0.934813	-0.071770
20299	-9.601160	1.996380	-0.602392	-0.915646	0.344110	1.042190	0.950862	0.454084	0.082505	-0.000788	-0.080548	-0.996750	-0.934342	-0.355160	0.029439	-0.356377	0.931329	-0.074980
20300	-9.629840	1.751030	-0.453586	-0.718572	0.334650	1.096100	0.954962	0.444234	0.081318	-0.009767	-0.087501	-0.996117	-0.931648	-0.361060	0.040851	-0.363232	0.928429	-0.077993
20301	-9.643970	1.726100	-0.558241	-0.520475	0.322663	1.149300	0.959772	0.436810	0.087322	-0.019344	-0.094685	-0.995319	-0.929573	-0.364841	0.052774	-0.368130	0.926243	-0.080960
20302	-9.665440	1.894550	-0.736980	-0.410471	0.315153	1.189490	0.963384	0.423388	0.090183	-0.029165	-0.101827	-0.994374	-0.927707	-0.367633	0.064857	-0.372169	0.924380	-0.083744
20303	-9.554460	2.063260	-0.562408	-0.396869	0.295646	1.203570	0.959667	0.412370	0.093360	-0.039274	-0.109018	-0.993264	-0.925805	-0.370029	0.077220	-0.375955	0.922601	-0.086397
20304	-9.452880	1.856380	-0.418927	-0.412834	0.286948	1.206840	0.965468	0.397825	0.100105	-0.049261	-0.115971	-0.992030	-0.923642	-0.372676	0.089432	-0.380077	0.920686	-0.088757
20305	-9.427400	1.636630	-0.352886	-0.390399	0.268329	1.193090	0.969078	0.389573	0.101451	-0.059303	-0.122919	-0.990643	-0.921497	-0.374841	0.101674	-0.383832	0.918904	-0.091041
20306	-9.407730	1.898930	-0.361883	-0.339289	0.251373	1.202030	0.963898	0.375263	0.107180	-0.069289	-0.129580	-0.989145	-0.919347	-0.376648	0.113741	-0.387298	0.917249	-0.093031
20307	-9.555220	2.040330	-0.367065	-0.331111	0.231119	1.192480	0.970740	0.360147	0.102429	-0.079400	-0.136218	-0.987492	-0.917165	-0.378097	0.125901	-0.390518	0.915689	-0.094914
20308	-9.712600	1.974630	-0.252713	-0.329496	0.212412	1.168100	0.973117	0.354709	0.106307	-0.089172	-0.142396	-0.985785	-0.914814	-0.379712	0.137602	-0.393908	0.914080	-0.096406
20309	-9.706630	1.628390	-0.199005	-0.336484	0.199174	1.145400	0.972381	0.337173	0.106546	-0.098908	-0.148592	-0.983940	-0.912397	-0.381117	0.149272	-0.397177	0.912508	-0.097880
20310	-9.658240	1.790180	0.104582	-0.345898	0.187925	1.118490	0.971644	0.327055	0.104112	-0.108317	-0.154384	-0.982055	-0.909792	-0.382769	0.160520	-0.400682	0.910853	-0.098997
20311	-9.651220	1.489420	-0.362620	-0.304271	0.172193	1.078580	0.971842	0.321162	0.106464	-0.117483	-0.160106	-0.980084	-0.907340	-0.383841	0.171467	-0.403649	0.909413	-0.100175
20312	-9.465070	1.681020	-0.935307	-0.209775	0.145966	1.028150	0.979386	0.306951	0.109771	-0.126300	-0.165310	-0.978121	-0.905220	-0.384090	0.181801	-0.405740	0.908376	-0.101131
20313	-9.421810	1.724570	-0.668259	-0.147060	0.118305	0.983526	0.972541	0.302917	0.106970	-0.134771	-0.170180	-0.976153	-0.903327	-0.383773	0.191623	-0.407232	0.907611	-0.102006
20314	-9.512400	1.625070	-0.102424	-0.162242	0.109115	0.929925	0.980095	0.293419	0.107975	-0.142853	-0.174749	-0.974195	-0.901387	-0.383549	0.200977	-0.408772	0.906837	-0.102726
20315	-9.569110	1.553660	-0.003254	-0.165508	0.104254	0.864974	0.981027	0.291939	0.109440	-0.150272	-0.179031	-0.972299	-0.899429	-0.383516	0.209628	-0.410422	0.906015	-0.103394
