// Start Time: Unknown
// Update Rate: 100.0Hz
// Filter Profile: human (46.1)
// Firmware Version: 4.6.0
PacketCounter	Acc_X	Acc_Y	Acc_Z	Gyr_X	Gyr_Y	Gyr_Z	Mag_X	Mag_Y	Mag_Z	Mat[1][1]	Mat[2][1]	Mat[3][1]	Mat[1][2]	Mat[2][2]	Mat[3][2]	Mat[1][3]	Mat[2][3]	Mat[3][3]
19648	-9.548340	1.732040	-1.264300	0.026408	-0.006661	-0.006517	1.014355	-0.482848	0.134693	0.189402	-0.116246	-0.974994	0.350102	-0.919708	0.177665	-0.917363	-0.374998	-0.133497
19649	-9.580650	1.796110	-1.274350	0.031484	-0.017319	-0.004769	1.008803	-0.483582	0.138011	0.189227	-0.116267	-0.975026	0.349823	-0.919832	0.177577	-0.917506	-0.374688	-0.133384
19650	-9.596420	1.817350	-1.313930	0.024193	-0.013263	-0.012263	1.012082	-0.486034	0.128249	0.189063	-0.116192	-0.975066	0.349621	-0.919940	0.177413	-0.917617	-0.374446	-0.133304
19651	-9.596590	1.785670	-1.330140	0.018251	-0.005933	-0.012712	1.009881	-0.487381	0.128979	0.188964	-0.116097	-0.975097	0.349478	-0.920023	0.177265	-0.917692	-0.374271	-0.133278
19652	-9.638380	1.780100	-1.287060	0.007472	-0.004001	-0.011204	1.010013	-0.480004	0.131563	0.188890	-0.116011	-0.975122	0.349430	-0.920064	0.177149	-0.917725	-0.374198	-0.133253
19653	-9.589220	1.741830	-1.326030	-0.002720	-0.003578	-0.011832	1.011951	-0.483920	0.129466	0.188816	-0.115916	-0.975147	0.349477	-0.920067	0.177037	-0.917722	-0.374219	-0.133213
19654	-9.533370	1.682350	-1.291070	0.000687	-0.002971	-0.012615	1.019538	-0.483202	0.128949	0.188745	-0.115814	-0.975173	0.349495	-0.920084	0.176917	-0.917730	-0.374210	-0.133185
19655	-9.541760	1.591900	-1.307680	0.000368	-0.001851	-0.008928	1.001431	-0.482372	0.124014	0.188697	-0.115739	-0.975191	0.349508	-0.920095	0.176829	-0.917735	-0.374204	-0.133167
19656	-9.574650	1.585720	-1.298120	0.006567	-0.001372	-0.005382	1.007099	-0.487209	0.121328	0.188662	-0.115689	-0.975204	0.349459	-0.920127	0.176761	-0.917761	-0.374142	-0.133165
19657	-9.614540	1.661570	-1.329110	0.014991	-0.002488	0.002368	1.018216	-0.489963	0.134503	0.188648	-0.115720	-0.975203	0.349317	-0.920181	0.176764	-0.917818	-0.374001	-0.133167
19658	-9.655550	1.758110	-1.289720	0.014107	-0.002836	0.005929	1.013570	-0.488636	0.129086	0.188634	-0.115763	-0.975201	0.349178	-0.920231	0.176779	-0.917874	-0.373865	-0.133165
19659	-9.641170	1.917500	-1.148630	0.010402	-0.005300	0.008140	1.014570	-0.476380	0.126303	0.188614	-0.115857	-0.975193	0.349067	-0.920260	0.176845	-0.917920	-0.373763	-0.133132
19660	-9.641320	1.948270	-1.131270	0.012401	-0.012462	0.006272	1.016438	-0.489741	0.135020	0.188502	-0.115961	-0.975203	0.348944	-0.920299	0.176882	-0.917989	-0.373634	-0.133015
19661	-9.650590	1.849300	-1.093110	0.019763	-0.020224	0.006271	1.018331	-0.487223	0.134308	0.188338	-0.116094	-0.975218	0.348751	-0.920366	0.176917	-0.918097	-0.373429	-0.132852
19662	-9.634540	1.706560	-1.117560	0.042947	-0.029400	0.010319	1.015332	-0.487616	0.130513	0.188059	-0.116342	-0.975243	0.348346	-0.920506	0.176984	-0.918308	-0.373005	-0.132582
19663	-9.626040	1.705610	-1.148670	0.056849	-0.035567	0.007202	1.014671	-0.490364	0.129946	0.187757	-0.116541	-0.975277	0.347810	-0.920710	0.176979	-0.918573	-0.372440	-0.132336
19664	-9.576350	1.738770	-1.205640	0.060242	-0.040190	0.007150	1.008201	-0.486987	0.124773	0.187328	-0.116804	-0.975328	0.347258	-0.920917	0.176984	-0.918869	-0.371845	-0.131953
19665	-9.484620	1.655080	-1.372540	0.049482	-0.027813	0.007213	1.014716	-0.481419	0.127424	0.187098	-0.116974	-0.975352	0.346790	-0.921092	0.176990	-0.919092	-0.371357	-0.131769
19666	-9.532900	1.611190	-1.434990	0.037646	-0.027309	0.000255	1.008177	-0.482809	0.131035	0.186763	-0.117116	-0.975399	0.346459	-0.921225	0.176949	-0.919286	-0.370983	-0.131475
19667	-9.565170	1.645070	-1.461350	0.039120	-0.009836	-0.005368	1.019310	-0.491830	0.119754	0.186654	-0.117103	-0.975422	0.346109	-0.921376	0.176845	-0.919439	-0.370611	-0.131448
19668	-9.589590	1.667620	-1.468210	0.019307	-0.007514	-0.006491	1.015935	-0.481700	0.136200	0.186511	-0.117067	-0.975453	0.345953	-0.921456	0.176734	-0.919527	-0.370424	-0.131362
19669	-9.590270	1.757400	-1.417920	0.008578	-0.006314	-0.010222	1.011911	-0.488845	0.132909	0.186417	-0.116996	-0.975480	0.345894	-0.921500	0.176623	-0.919568	-0.370338	-0.131315
19670	-9.590760	1.786720	-1.400130	-0.012385	-0.017372	-0.010129	1.013672	-0.482648	0.128125	0.186211	-0.116939	-0.975526	0.346027	-0.921471	0.176510	-0.919560	-0.370426	-0.131124
19671	-9.544670	1.749360	-1.260150	-0.018864	-0.009265	-0.013700	1.010785	-0.483912	0.123016	0.186078	-0.116847	-0.975562	0.346226	-0.921418	0.176401	-0.919512	-0.370589	-0.131000
19672	-9.579200	1.662840	-1.175350	-0.023977	-0.006072	-0.011756	1.010523	-0.477537	0.133444	0.185984	-0.116743	-0.975593	0.346469	-0.921345	0.176302	-0.919439	-0.370802	-0.130908
19673	-9.588150	1.663150	-1.140970	-0.013204	-0.008010	-0.013265	1.009163	-0.488481	0.123336	0.185865	-0.116651	-0.975626	0.346616	-0.921312	0.176189	-0.919409	-0.370915	-0.130806
19674	-9.703010	1.658460	-1.098280	0.000888	-0.007862	-0.005087	1.018789	-0.484437	0.123886	0.185736	-0.116610	-0.975656	0.346624	-0.921325	0.176103	-0.919431	-0.370894	-0.130704
19675	-9.695400	1.646790	-1.077260	0.015607	-0.009966	-0.004279	1.020556	-0.493903	0.127831	0.185630	-0.116607	-0.975676	0.346488	-0.921388	0.176041	-0.919504	-0.370739	-0.130634
19676	-9.613130	1.715050	-1.129190	0.020406	-0.012033	-0.002538	1.011945	-0.481162	0.126248	0.185395	-0.116602	-0.975722	0.346329	-0.921470	0.175924	-0.919612	-0.370536	-0.130453
19677	-9.530560	1.722770	-1.214480	0.016172	-0.008499	-0.004156	1.019043	-0.484904	0.123430	0.185302	-0.116595	-0.975740	0.346188	-0.921535	0.175862	-0.919683	-0.370377	-0.130398
19678	-9.586310	1.659170	-1.315710	0.000074	0.006721	-0.008954	1.017576	-0.484491	0.128020	0.185191	-0.116473	-0.975776	0.346232	-0.921547	0.175711	-0.919689	-0.370384	-0.130335
19679	-9.595000	1.659650	-1.283120	-0.000214	0.010089	-0.008254	1.016997	-0.482705	0.124400	0.185255	-0.116360	-0.975777	0.346249	-0.921556	0.175631	-0.919670	-0.370398	-0.130433
19680	-9.595200	1.689290	-1.266990	-0.012691	0.002398	-0.006379	1.019377	-0.483979	0.130980	0.185114	-0.116253	-0.975817	0.346404	-0.921523	0.175499	-0.919640	-0.370514	-0.130316
19681	-9.521160	1.698220	-1.319940	-0.030760	0.013597	-0.013097	1.012661	-0.485361	0.129482	0.185193	-0.116082	-0.975822	0.346711	-0.921424	0.175411	-0.919508	-0.370813	-0.130395
19682	-9.637430	1.643370	-1.188080	-0.028758	0.011651	-0.015681	1.014075	-0.485403	0.130754	0.185127	-0.115846	-0.975863	0.347018	-0.921348	0.175205	-0.919406	-0.371077	-0.130366
19683	-9.685800	1.659390	-1.219550	-0.001666	0.003058	-0.004081	1.011877	-0.484495	0.120980	0.185141	-0.115796	-0.975866	0.347041	-0.921346	0.175167	-0.919394	-0.371096	-0.130393
19684	-9.628170	1.680930	-1.259400	-0.014376	0.008436	-0.008204	1.016892	-0.477828	0.119780	0.185057	-0.115644	-0.975900	0.347217	-0.921309	0.175017	-0.919345	-0.371237	-0.130341
19685	-9.579030	1.673460	-1.282500	-0.034758	0.009274	-0.009443	1.022741	-0.477753	0.124866	0.185109	-0.115523	-0.975904	0.347554	-0.921190	0.174970	-0.919207	-0.371568	-0.130371
19686	-9.579250	1.703220	-1.266180	-0.029664	0.009063	-0.009131	1.019200	-0.484023	0.121356	0.184973	-0.115330	-0.975953	0.347886	-0.921100	0.174783	-0.919108	-0.371851	-0.130257
19687	-9.569430	1.681490	-1.370610	-0.035383	0.016742	-0.002795	1.015576	-0.486082	0.121869	0.185116	-0.115242	-0.975936	0.348217	-0.920972	0.174801	-0.918954	-0.372196	-0.130358
19688	-9.554380	1.749730	-1.280670	-0.036451	0.010086	-0.010535	1.014846	-0.486799	0.126940	0.185031	-0.115045	-0.975975	0.348629	-0.920846	0.174642	-0.918815	-0.372568	-0.130277
19689	-9.594900	1.755130	-1.291700	-0.030276	0.008327	-0.004012	1.019765	-0.483668	0.124740	0.185092	-0.114978	-0.975972	0.348916	-0.920738	0.174642	-0.918694	-0.372857	-0.130304
19690	-9.628720	1.769880	-1.211980	-0.029421	0.006428	-0.004590	1.017370	-0.484205	0.133365	0.185020	-0.114856	-0.976000	0.349222	-0.920640	0.174543	-0.918592	-0.373135	-0.130226
19691	-9.605200	1.706170	-1.167780	-0.027171	0.001855	-0.002644	1.013155	-0.480657	0.118428	0.185026	-0.114825	-0.976002	0.349477	-0.920542	0.174552	-0.918494	-0.373387	-0.130195
19692	-9.622170	1.648170	-1.134360	-0.024056	0.005830	-0.002725	1.007621	-0.474066	0.136336	0.184955	-0.114746	-0.976025	0.349716	-0.920464	0.174485	-0.918417	-0.373604	-0.130116
19693	-9.613420	1.647210	-1.167900	-0.009943	0.003004	0.003193	1.019181	-0.474044	0.121095	0.184992	-0.114765	-0.976016	0.349802	-0.920423	0.174529	-0.918377	-0.373699	-0.130126
19694	-9.637130	1.610830	-1.208830	0.000230	0.005568	0.006070	1.014541	-0.484199	0.126626	0.184922	-0.114738	-0.976032	0.349750	-0.920454	0.174469	-0.918411	-0.373630	-0.130083
19695	-9.604240	1.616790	-1.219010	0.007041	0.006787	0.004496	1.017983	-0.495624	0.128075	0.184998	-0.114753	-0.976016	0.349678	-0.920475	0.174502	-0.918423	-0.373573	-0.130160
19696	-9.570720	1.693470	-1.249780	0.011487	0.011800	0.014438	1.020568	-0.479383	0.126013	0.185000	-0.114801	-0.976010	0.349587	-0.920503	0.174535	-0.918457	-0.373489	-0.130160
19697	-9.544480	1.721010	-1.334580	0.008151	0.012701	0.007006	1.022530	-0.484426	0.128979	0.185140	-0.114817	-0.975982	0.349499	-0.920526	0.174592	-0.918462	-0.373429	-0.130298
19698	-9.559540	1.713820	-1.392850	-0.000356	0.007078	0.008204	1.015979	-0.487090	0.124888	0.185013	-0.114771	-0.976011	0.349517	-0.920536	0.174502	-0.918481	-0.373418	-0.130197
19699	-9.577870	1.737200	-1.256320	0.004174	0.005401	0.008389	1.019840	-0.480897	0.122526	0.185090	-0.114826	-0.975990	0.349464	-0.920542	0.174576	-0.918486	-0.373385	-0.130256
19700	-9.586200	1.708960	-1.239950	0.008699	-0.001499	0.009297	1.010822	-0.487537	0.130151	0.184953	-0.114872	-0.976011	0.349429	-0.920558	0.174562	-0.918527	-0.373333	-0.130121
19701	-9.620670	1.684410	-1.123170	0.017740	-0.001876	0.011928	1.016909	-0.485856	0.129652	0.184976	-0.114988	-0.975993	0.349245	-0.920611	0.174654	-0.918592	-0.373167	-0.130132
19702	-9.644920	1.739020	-1.113720	0.030207	-0.004623	0.011515	1.019753	-0.476084	0.130562	0.184887	-0.115082	-0.975999	0.348932	-0.920728	0.174664	-0.918729	-0.372850	-0.130074
19703	-9.627510	1.767570	-1.164220	0.037563	0.001038	0.012328	1.010434	-0.484462	0.126483	0.184938	-0.115191	-0.975976	0.348564	-0.920853	0.174734	-0.918859	-0.372505	-0.130150
19704	-9.610220	1.826370	-1.198440	0.030191	0.003575	0.013054	1.011746	-0.483903	0.129259	0.184857	-0.115260	-0.975983	0.348246	-0.920976	0.174724	-0.918995	-0.372182	-0.130110
19705	-9.608300	1.716210	-1.319520	0.010394	0.002906	0.009674	1.013415	-0.488850	0.128183	0.184916	-0.115337	-0.975963	0.348133	-0.921003	0.174803	-0.919026	-0.372089	-0.130156
19706	-9.631940	1.679860	-1.360910	-0.014455	0.015137	0.001548	1.018826	-0.491986	0.124978	0.184975	-0.115322	-0.975953	0.348263	-0.920949	0.174830	-0.918965	-0.372228	-0.130190
19707	-9.623130	1.678890	-1.394660	-0.026043	-0.000413	-0.001687	1.014375	-0.482608	0.125180	0.184965	-0.115306	-0.975957	0.348505	-0.920854	0.174846	-0.918875	-0.372467	-0.130141
19708	-9.525820	1.685280	-1.369870	-0.031090	0.017706	-0.007150	1.012996	-0.481945	0.128081	0.184974	-0.115183	-0.975970	0.348876	-0.920726	0.174785	-0.918733	-0.372824	-0.130126
19709	-9.502860	1.711990	-1.276630	-0.033642	0.015199	-0.006942	1.023948	-0.487745	0.127898	0.185089	-0.115062	-0.975962	0.349198	-0.920608	0.174760	-0.918587	-0.373151	-0.130215
19710	-9.569070	1.660800	-1.221270	-0.023486	0.007311	-0.002613	1.016527	-0.483562	0.127234	0.185021	-0.114965	-0.975987	0.349440	-0.920532	0.174677	-0.918509	-0.373367	-0.130144
19711	-9.626570	1.608490	-1.199130	-0.008199	0.006680	-0.001676	1.014200	-0.483555	0.125085	0.185076	-0.114923	-0.975981	0.349518	-0.920504	0.174670	-0.918468	-0.373450	-0.130195
19712	-9.619100	1.657980	-1.146040	0.005889	0.006825	0.006510	1.021755	-0.483591	0.121093	0.185049	-0.114928	-0.975986	0.349478	-0.920522	0.174658	-0.918489	-0.373406	-0.130177
19713	-9.650110	1.733330	-1.210950	0.016660	-0.000327	0.005723	1.016513	-0.481226	0.121793	0.185065	-0.114981	-0.975977	0.349314	-0.920577	0.174691	-0.918548	-0.373252	-0.130202
19714	-9.689710	1.779410	-1.259100	0.013578	0.003165	0.002100	1.011884	-0.479941	0.125505	0.184870	-0.114964	-0.976016	0.349305	-0.920598	0.174599	-0.918591	-0.373206	-0.130034
19715	-9.608830	1.798210	-1.221600	0.005379	0.009845	0.000423	1.026797	-0.484744	0.133162	0.184959	-0.114930	-0.976003	0.349256	-0.920618	0.174595	-0.918591	-0.373168	-0.130137
19716	-9.616870	1.708680	-1.239400	-0.003095	0.011692	-0.002086	1.013481	-0.490546	0.124786	0.184895	-0.114797	-0.976030	0.349275	-0.920638	0.174448	-0.918597	-0.373158	-0.130126
19717	-9.552110	1.679100	-1.222350	0.003442	0.008073	-0.004486	1.012918	-0.483931	0.127393	0.184951	-0.114724	-0.976029	0.349253	-0.920657	0.174396	-0.918594	-0.373135	-0.130209
19718	-9.575840	1.642100	-1.263740	0.009881	0.005923	0.003593	1.013595	-0.481581	0.127330	0.184961	-0.114788	-0.976019	0.349203	-0.920664	0.174454	-0.918611	-0.373096	-0.130203
19719	-9.560420	1.650290	-1.207280	0.014390	0.007222	0.006041	1.018679	-0.482284	0.128878	0.185046	-0.114816	-0.976000	0.349061	-0.920711	0.174493	-0.918648	-0.372972	-0.130296
19720	-9.607420	1.677550	-1.292960	0.016078	0.006404	0.007140	1.013166	-0.486419	0.129229	0.184993	-0.114808	-0.976011	0.348893	-0.920785	0.174441	-0.918723	-0.372793	-0.130283
19721	-9.591810	1.655750	-1.252870	-0.001470	0.001165	0.005694	1.015211	-0.479453	0.128275	0.185021	-0.114855	-0.976000	0.348897	-0.920773	0.174496	-0.918716	-0.372808	-0.130289
19722	-9.590860	1.696430	-1.290060	-0.022113	0.007619	0.002160	1.011105	-0.485912	0.126243	0.185010	-0.114809	-0.976007	0.349075	-0.920709	0.174474	-0.918650	-0.372979	-0.130263
19723	-9.591410	1.656840	-1.254450	-0.040797	0.031506	0.001374	1.015953	-0.480438	0.133879	0.185301	-0.114702	-0.975965	0.349448	-0.920556	0.174538	-0.918450	-0.373391	-0.130497
19724	-9.615070	1.650790	-1.280140	-0.040228	0.019551	0.000686	1.013504	-0.489813	0.125491	0.185424	-0.114587	-0.975955	0.349766	-0.920438	0.174522	-0.918304	-0.373716	-0.130592
19725	-9.574310	1.645750	-1.270590	-0.040817	0.021057	0.002823	1.012338	-0.482131	0.129688	0.185625	-0.114532	-0.975923	0.350136	-0.920282	0.174599	-0.918122	-0.374116	-0.130725
19726	-9.574220	1.676610	-1.255230	-0.026364	0.019345	0.002093	1.020609	-0.488869	0.125327	0.185759	-0.114486	-0.975903	0.350391	-0.920177	0.174644	-0.917998	-0.374389	-0.130816
19727	-9.573730	1.647060	-1.273230	-0.005453	0.012503	0.007179	1.014802	-0.476900	0.131566	0.185897	-0.114503	-0.975875	0.350428	-0.920149	0.174718	-0.917956	-0.374453	-0.130928
19728	-9.574200	1.768610	-1.208020	-0.000364	0.025709	0.008324	1.020165	-0.479800	0.129454	0.186008	-0.114391	-0.975867	0.350430	-0.920160	0.174656	-0.917933	-0.374460	-0.131071
19729	-9.605830	1.834250	-1.221350	-0.021275	0.032550	0.003238	1.014668	-0.487872	0.132233	0.186316	-0.114296	-0.975819	0.350619	-0.920077	0.174712	-0.917798	-0.374693	-0.131351
19730	-9.622180	1.716160	-1.224320	-0.018113	0.030571	-0.001357	1.012337	-0.487100	0.130302	0.186480	-0.114089	-0.975812	0.350762	-0.920044	0.174600	-0.917710	-0.374837	-0.131551
19731	-9.630920	1.586770	-1.206510	-0.005983	0.018498	0.003361	1.012073	-0.480120	0.131781	0.186659	-0.114047	-0.975783	0.350811	-0.920019	0.174636	-0.917655	-0.374912	-0.131721
19732	-9.629250	1.567190	-1.278600	0.006431	0.016479	0.008202	1.008270	-0.481438	0.126158	0.186797	-0.114023	-0.975759	0.350677	-0.920067	0.174648	-0.917678	-0.374800	-0.131881
19733	-9.580250	1.651760	-1.252570	0.016566	0.016785	0.014081	1.020602	-0.483874	0.130600	0.186999	-0.114085	-0.975713	0.350498	-0.920114	0.174759	-0.917705	-0.374665	-0.132074
19734	-9.530710	1.676260	-1.260360	0.025312	0.019765	0.017439	1.020132	-0.485740	0.136427	0.187100	-0.114119	-0.975690	0.350261	-0.920198	0.174795	-0.917775	-0.374450	-0.132198
19735	-9.586180	1.735820	-1.297370	0.027322	0.017826	0.014852	1.015692	-0.481155	0.135020	0.187313	-0.114184	-0.975641	0.349982	-0.920284	0.174898	-0.917838	-0.374218	-0.132419
19736	-9.641890	1.825440	-1.317540	0.026755	0.016357	0.014727	1.005904	-0.474013	0.140719	0.187426	-0.114094	-0.975630	0.349604	-0.920446	0.174802	-0.917959	-0.373847	-0.132627
19737	-9.617720	1.863280	-1.278710	0.012058	0.015487	0.011630	1.007543	-0.483628	0.129407	0.187607	-0.114136	-0.975590	0.349471	-0.920480	0.174892	-0.917972	-0.373752	-0.132802
19738	-9.559460	1.886010	-1.319200	0.010418	0.010355	0.006005	1.009536	-0.488743	0.127264	0.187746	-0.114059	-0.975573	0.349175	-0.920604	0.174831	-0.918057	-0.373469	-0.133013
19739	-9.609320	1.823010	-1.277500	0.013250	0.004274	0.005817	1.011694	-0.480845	0.132929	0.187806	-0.114087	-0.975558	0.349041	-0.920649	0.174860	-0.918096	-0.373349	-0.133082
19740	-9.551820	1.744880	-1.313400	0.014926	-0.001765	0.007635	1.016479	-0.482420	0.131170	0.187777	-0.114221	-0.975548	0.348898	-0.920685	0.174955	-0.918156	-0.373219	-0.133032
19741	-9.566600	1.707320	-1.387460	0.023984	-0.005127	0.008025	1.016293	-0.481430	0.129415	0.187758	-0.114305	-0.975541	0.348661	-0.920768	0.174993	-0.918250	-0.372990	-0.133028
19742	-9.573980	1.688690	-1.424390	0.017202	-0.004094	0.006603	1.016331	-0.482982	0.129482	0.187579	-0.114313	-0.975575	0.348545	-0.920827	0.174914	-0.918330	-0.372842	-0.132884
19743	-9.533450	1.683230	-1.413690	0.016092	0.003410	0.004911	1.011983	-0.486221	0.130389	0.187626	-0.114335	-0.975563	0.348387	-0.920883	0.174930	-0.918381	-0.372695	-0.132948
19744	-9.558850	1.727450	-1.351240	0.003626	0.006169	0.005298	1.013727	-0.482063	0.132169	0.187624	-0.114365	-0.975560	0.348389	-0.920877	0.174958	-0.918380	-0.372701	-0.132935
19745	-9.583890	1.711200	-1.321940	-0.015574	0.004009	-0.000262	1.013129	-0.485408	0.126854	0.187657	-0.114337	-0.975557	0.348532	-0.920822	0.174966	-0.918319	-0.372846	-0.132949
19746	-9.543320	1.705960	-1.311310	-0.035170	0.011899	0.004651	1.015252	-0.487013	0.129301	0.187701	-0.114335	-0.975549	0.348895	-0.920671	0.175033	-0.918172	-0.373218	-0.132920
19747	-9.609300	1.595280	-1.289760	-0.028619	0.013495	0.001544	1.016773	-0.487522	0.128716	0.187827	-0.114289	-0.975530	0.349155	-0.920565	0.175075	-0.918048	-0.373495	-0.133002
19748	-9.615450	1.617220	-1.364600	-0.020477	0.012760	0.007758	1.015201	-0.481980	0.132288	0.187893	-0.114349	-0.975510	0.349419	-0.920442	0.175195	-0.917934	-0.373780	-0.132989
19749	-9.665910	1.645480	-1.272660	-0.022465	0.011723	0.008084	1.004734	-0.479197	0.129845	0.188025	-0.114370	-0.975482	0.349610	-0.920350	0.175294	-0.917834	-0.373998	-0.133064
19750	-9.656780	1.645270	-1.306630	-0.015660	0.007713	0.007246	1.019031	-0.493423	0.131246	0.188067	-0.114327	-0.975479	0.349698	-0.920319	0.175282	-0.917792	-0.374088	-0.133102
19751	-9.633110	1.713130	-1.249180	-0.002651	-0.004018	0.008417	1.018921	-0.492064	0.141561	0.188056	-0.114409	-0.975472	0.349707	-0.920302	0.175356	-0.917791	-0.374106	-0.133058
19752	-9.598940	1.729530	-1.311780	-0.001555	-0.003330	0.011653	1.006458	-0.483870	0.141096	0.188158	-0.114510	-0.975440	0.349621	-0.920311	0.175479	-0.917803	-0.374053	-0.133128
19753	-9.575060	1.767400	-1.270630	-0.003807	-0.003976	0.010424	1.013272	-0.484465	0.132607	0.188156	-0.114612	-0.975429	0.349636	-0.920287	0.175576	-0.917797	-0.374080	-0.133085
19754	-9.566230	1.797460	-1.286910	0.008636	-0.003762	0.012299	1.007797	-0.484710	0.134350	0.188268	-0.114632	-0.975405	0.349345	-0.920394	0.175595	-0.917885	-0.373812	-0.133234
19755	-9.541990	1.774770	-1.279290	0.010080	-0.007168	0.009583	1.014215	-0.479139	0.134469	0.188236	-0.114735	-0.975399	0.349232	-0.920423	0.175665	-0.917935	-0.373707	-0.133187
19756	-9.567060	1.759040	-1.249200	0.019114	-0.007559	0.012237	1.011828	-0.482724	0.130557	0.188202	-0.114749	-0.975404	0.348937	-0.920543	0.175621	-0.918054	-0.373407	-0.133208
19757	-9.583280	1.742120	-1.252400	0.029591	-0.011358	0.012175	1.013707	-0.491690	0.123000	0.188141	-0.114890	-0.975399	0.348640	-0.920643	0.175688	-0.918179	-0.373117	-0.133155
19758	-9.573110	1.751480	-1.339120	0.029075	-0.005362	0.008352	1.015432	-0.484027	0.127564	0.188013	-0.115090	-0.975400	0.348489	-0.920678	0.175806	-0.918263	-0.372970	-0.132992
19759	-9.615020	1.807930	-1.263430	0.014445	0.006464	0.000832	1.014920	-0.483445	0.137096	0.188075	-0.115063	-0.975391	0.348353	-0.920734	0.175784	-0.918302	-0.372841	-0.133084
19760	-9.598230	1.765460	-1.293970	-0.007680	0.008887	0.003680	1.013388	-0.489921	0.132882	0.188080	-0.114964	-0.975402	0.348422	-0.920723	0.175703	-0.918275	-0.372898	-0.133113
19761	-9.605330	1.716530	-1.348530	-0.030828	0.015109	-0.002668	1.008395	-0.480592	0.129733	0.188208	-0.114870	-0.975388	0.348708	-0.920614	0.175705	-0.918140	-0.373195	-0.133210
19762	-9.680860	1.666760	-1.259780	-0.022308	-0.000895	-0.006212	1.014137	-0.480835	0.136761	0.188162	-0.114827	-0.975402	0.348915	-0.920541	0.175677	-0.918070	-0.373388	-0.133147
19763	-9.556830	1.608650	-1.367230	-0.027993	0.000830	-0.004399	1.014566	-0.483702	0.120946	0.188154	-0.114771	-0.975411	0.349178	-0.920445	0.175659	-0.917972	-0.373643	-0.133110
19764	-9.598920	1.664860	-1.290630	-0.029982	-0.000206	-0.004073	1.012542	-0.477401	0.132311	0.187966	-0.114660	-0.975460	0.349560	-0.920323	0.175538	-0.917865	-0.373977	-0.132909
19765	-9.573780	1.681620	-1.319800	-0.022105	-0.000558	0.000588	1.014955	-0.489555	0.139609	0.187960	-0.114655	-0.975462	0.349761	-0.920242	0.175559	-0.917790	-0.374177	-0.132867
19766	-9.566270	1.701140	-1.282490	-0.026392	0.003709	0.004213	1.012171	-0.481498	0.136723	0.188034	-0.114515	-0.975464	0.349861	-0.920221	0.175470	-0.917737	-0.374271	-0.132968
19767	-9.573740	1.713150	-1.302900	-0.023006	0.007286	0.005701	1.007717	-0.490422	0.133471	0.188118	-0.114525	-0.975446	0.350060	-0.920132	0.175541	-0.917643	-0.374487	-0.133003
19768	-9.549480	1.690380	-1.295670	-0.018492	0.000382	0.006608	1.015034	-0.484623	0.125816	0.188254	-0.114541	-0.975418	0.350060	-0.920119	0.175609	-0.917615	-0.374514	-0.133120
19769	-9.606250	1.709640	-1.293300	-0.012868	-0.000616	0.010038	1.007752	-0.478252	0.120988	0.188283	-0.114620	-0.975403	0.350157	-0.920063	0.175708	-0.917573	-0.374627	-0.133098
19770	-9.670630	1.740160	-1.311150	-0.012278	-0.002123	0.007902	1.013389	-0.486446	0.138990	0.188032	-0.114722	-0.975440	0.350498	-0.919924	0.175757	-0.917494	-0.374938	-0.132765
19771	-9.622640	1.754080	-1.262970	-0.022153	0.005388	0.005123	1.016127	-0.479628	0.134215	0.188095	-0.114733	-0.975426	0.350691	-0.919839	0.175820	-0.917407	-0.375144	-0.132781
19772	-9.555570	1.775640	-1.335740	-0.031461	0.014364	0.002475	1.013019	-0.484500	0.135736	0.188255	-0.114482	-0.975425	0.350821	-0.919819	0.175664	-0.917325	-0.375269	-0.132998
19773	-9.589270	1.730550	-1.290300	-0.035968	0.013074	0.000019	1.011431	-0.483467	0.128335	0.188372	-0.114415	-0.975410	0.351149	-0.919688	0.175693	-0.917175	-0.375610	-0.133066
19774	-9.605210	1.683250	-1.311500	-0.031766	0.012503	0.003904	1.006709	-0.483294	0.129710	0.188474	-0.114326	-0.975401	0.351398	-0.919595	0.175685	-0.917059	-0.375866	-0.133146
19775	-9.564600	1.678020	-1.301120	-0.029755	0.010566	0.001314	1.014488	-0.484364	0.126701	0.188573	-0.114280	-0.975387	0.351666	-0.919486	0.175718	-0.916936	-0.376146	-0.133201
19776	-9.564610	1.708690	-1.284840	-0.017877	0.009310	0.003058	1.005880	-0.485450	0.128295	0.188577	-0.114273	-0.975387	0.351896	-0.919392	0.175747	-0.916847	-0.376377	-0.133164
19777	-9.555920	1.768530	-1.284780	-0.019617	0.002662	0.005642	1.009264	-0.484587	0.128452	0.188618	-0.114296	-0.975377	0.352064	-0.919316	0.175809	-0.916774	-0.376556	-0.133160
19778	-9.621300	1.728290	-1.282630	-0.012524	-0.004710	0.004078	1.015779	-0.486263	0.130810	0.188571	-0.114416	-0.975372	0.352191	-0.919246	0.175922	-0.916735	-0.376691	-0.133047
19779	-9.597070	1.674880	-1.291480	-0.005983	-0.008328	0.001676	1.009535	-0.491245	0.131134	0.188496	-0.114445	-0.975383	0.352242	-0.919225	0.175928	-0.916731	-0.376732	-0.132958
19780	-9.539450	1.757630	-1.295680	-0.007443	-0.010148	0.005106	1.007873	-0.490027	0.129130	0.188458	-0.114570	-0.975376	0.352269	-0.919194	0.176035	-0.916728	-0.376769	-0.132870
19781	-9.515540	1.764590	-1.270880	-0.015329	-0.001600	0.002013	1.018905	-0.486261	0.130956	0.188447	-0.114578	-0.975377	0.352404	-0.919138	0.176057	-0.916678	-0.376904	-0.132831
19782	-9.524210	1.735980	-1.254160	-0.011941	0.001975	0.003505	1.009918	-0.484252	0.133169	0.188472	-0.114628	-0.975366	0.352510	-0.919084	0.176130	-0.916632	-0.377022	-0.132815
19783	-9.613490	1.689210	-1.276350	0.001321	-0.001962	0.007766	1.016900	-0.486880	0.127399	0.188479	-0.114690	-0.975357	0.352482	-0.919084	0.176187	-0.916642	-0.377003	-0.132802
19784	-9.694530	1.762070	-1.264380	0.003007	-0.002785	0.008864	1.019829	-0.484356	0.130554	0.188434	-0.114728	-0.975362	0.352445	-0.919095	0.176200	-0.916665	-0.376963	-0.132754
19785	-9.646770	1.805910	-1.198850	0.009796	-0.012016	0.008719	1.014660	-0.488037	0.128263	0.188351	-0.114836	-0.975365	0.352337	-0.919126	0.176254	-0.916724	-0.376855	-0.132658
19786	-9.563410	1.815010	-1.283250	0.007581	-0.010408	0.004515	1.007605	-0.484886	0.134700	0.188153	-0.114848	-0.975402	0.352334	-0.919140	0.176188	-0.916766	-0.376817	-0.132475
19787	-9.589730	1.758590	-1.216100	0.004412	-0.008436	0.009116	1.014195	-0.481440	0.123540	0.188104	-0.114946	-0.975400	0.352275	-0.919150	0.176253	-0.916798	-0.376763	-0.132403
19788	-9.555310	1.714660	-1.311980	0.005834	-0.008867	0.008662	1.016609	-0.477269	0.126128	0.187968	-0.114996	-0.975420	0.352224	-0.919172	0.176240	-0.916846	-0.376694	-0.132271
19789	-9.546120	1.653900	-1.378410	0.009548	-0.006404	0.006461	1.014069	-0.486117	0.132632	0.187927	-0.115061	-0.975420	0.352123	-0.919205	0.176271	-0.916893	-0.376594	-0.132228
19790	-9.555080	1.685630	-1.327990	0.019455	-0.003479	0.007817	1.020804	-0.478614	0.130513	0.187757	-0.114976	-0.975463	0.351994	-0.919286	0.176106	-0.916977	-0.376423	-0.132131
19791	-9.580570	1.759930	-1.248200	0.021726	0.002384	0.008339	1.013852	-0.490991	0.125636	0.187802	-0.115024	-0.975449	0.351779	-0.919362	0.176138	-0.917051	-0.376221	-0.132195
19792	-9.594770	1.883440	-1.292580	0.019511	0.003990	0.004134	1.009558	-0.493889	0.125365	0.187690	-0.114962	-0.975477	0.351709	-0.919410	0.176027	-0.917100	-0.376123	-0.132131
19793	-9.612600	1.915790	-1.209490	0.014457	-0.001732	-0.000722	1.018874	-0.489689	0.127218	0.187664	-0.114942	-0.975485	0.351578	-0.919470	0.175978	-0.917156	-0.375983	-0.132140
19794	-9.573200	1.839250	-1.178710	0.015289	-0.000658	0.000962	1.008139	-0.491710	0.137073	0.187639	-0.115136	-0.975467	0.351553	-0.919447	0.176148	-0.917171	-0.375980	-0.132047
19795	-9.605890	1.803640	-1.186180	0.021788	-0.006530	0.001538	1.011847	-0.486623	0.124189	0.187576	-0.115157	-0.975476	0.351350	-0.919531	0.176114	-0.917261	-0.375769	-0.132022
19796	-9.596680	1.711820	-1.269720	0.029726	-0.007613	0.000951	1.021313	-0.480949	0.131555	0.187593	-0.115288	-0.975458	0.351015	-0.919643	0.176196	-0.917386	-0.375454	-0.132051
19797	-9.563830	1.686610	-1.295670	0.034556	-0.007443	-0.000280	1.000788	-0.481565	0.126876	0.187517	-0.115296	-0.975471	0.350699	-0.919777	0.176129	-0.917523	-0.375123	-0.132040
19798	-9.555350	1.745430	-1.295070	0.034801	-0.013057	0.001988	1.015050	-0.489352	0.129578	0.187283	-0.115262	-0.975520	0.350394	-0.919924	0.175963	-0.917687	-0.374771	-0.131899
19799	-9.569650	1.807640	-1.371770	0.034292	-0.015249	-0.003383	1.015164	-0.489608	0.136592	0.187123	-0.115270	-0.975550	0.350086	-0.920061	0.175864	-0.917837	-0.374435	-0.131810
19800	-9.553500	1.794610	-1.383480	0.016694	-0.022700	-0.001880	1.005786	-0.489038	0.137334	0.186984	-0.115342	-0.975568	0.349860	-0.920150	0.175847	-0.917951	-0.374193	-0.131700
19801	-9.529490	1.710090	-1.408160	-0.008160	-0.012666	-0.007047	1.013858	-0.477136	0.134977	0.186836	-0.115306	-0.975601	0.349948	-0.920131	0.175769	-0.917948	-0.374250	-0.131563
19802	-9.540860	1.660270	-1.283690	-0.008371	0.003386	-0.010744	1.010864	-0.487017	0.137049	0.186942	-0.115043	-0.975611	0.349831	-0.920219	0.175544	-0.917971	-0.374116	-0.131782
19803	-9.557140	1.611560	-1.304580	-0.025650	0.011204	-0.009826	1.014294	-0.485595	0.131726	0.187005	-0.114890	-0.975617	0.350084	-0.920139	0.175461	-0.917862	-0.374360	-0.131850
19804	-9.681030	1.638680	-1.213780	-0.023679	0.007017	-0.009437	1.021840	-0.481480	0.125580	0.187131	-0.114712	-0.975614	0.350181	-0.920122	0.175355	-0.917799	-0.374456	-0.132013
19805	-9.664670	1.625690	-1.226780	-0.021157	-0.000924	-0.008207	1.006087	-0.490382	0.123059	0.187090	-0.114619	-0.975633	0.350389	-0.920057	0.175282	-0.917728	-0.374644	-0.131972
19806	-9.633340	1.650640	-1.165550	-0.017201	0.004118	-0.006591	1.009686	-0.486786	0.127020	0.186939	-0.114630	-0.975661	0.350741	-0.919922	0.175284	-0.917625	-0.374971	-0.131764
19807	-9.583200	1.713690	-1.207900	-0.003654	-0.003185	-0.003041	1.023089	-0.477684	0.127407	0.186893	-0.114595	-0.975674	0.350779	-0.919916	0.175239	-0.917619	-0.374997	-0.131729
19808	-9.582330	1.783910	-1.227750	0.004263	-0.001293	-0.001363	1.018455	-0.484738	0.126428	0.186683	-0.114494	-0.975726	0.350873	-0.919911	0.175076	-0.917626	-0.375040	-0.131559
19809	-9.614050	1.818740	-1.255260	0.003675	0.000213	0.000774	1.009976	-0.479050	0.130976	0.186681	-0.114480	-0.975728	0.350837	-0.919928	0.175057	-0.917640	-0.375001	-0.131569
19810	-9.589990	1.794880	-1.248140	-0.000795	0.001173	-0.004661	1.019278	-0.487836	0.131126	0.186548	-0.114341	-0.975769	0.350908	-0.919934	0.174885	-0.917640	-0.375029	-0.131489
19811	-9.591170	1.754130	-1.211190	-0.004184	-0.002403	-0.006148	1.018451	-0.485156	0.131319	0.186496	-0.114272	-0.975787	0.350957	-0.919930	0.174807	-0.917632	-0.375060	-0.131459
19812	-9.526430	1.663780	-1.226690	-0.024271	0.008519	-0.007295	1.008134	-0.482937	0.126386	0.186508	-0.114111	-0.975804	0.351202	-0.919858	0.174695	-0.917536	-0.375287	-0.131485
19813	-9.608290	1.604390	-1.228870	-0.004962	0.003992	-0.011519	1.019914	-0.482115	0.125313	0.186496	-0.113968	-0.975823	0.351269	-0.919857	0.174565	-0.917513	-0.375332	-0.131516
19814	-9.599640	1.632650	-1.245980	0.011667	0.006603	-0.003503	1.010667	-0.483877	0.125639	0.186379	-0.113900	-0.975853	0.351297	-0.919866	0.174460	-0.917525	-0.375330	-0.131431
19815	-9.540660	1.724660	-1.306210	0.004878	0.015835	-0.003366	1.012605	-0.489510	0.134244	0.186503	-0.113787	-0.975843	0.351259	-0.919893	0.174396	-0.917515	-0.375299	-0.131594
19816	-9.557150	1.766890	-1.277910	-0.009843	0.017953	-0.004197	1.003841	-0.482549	0.129980	0.186692	-0.113741	-0.975812	0.351322	-0.919862	0.174434	-0.917452	-0.375390	-0.131771
19817	-9.588420	1.741140	-1.340320	-0.001920	0.011653	-0.004073	1.016955	-0.484348	0.133063	0.186775	-0.113638	-0.975808	0.351347	-0.919864	0.174373	-0.917426	-0.375416	-0.131881
19818	-9.580920	1.759620	-1.304190	-0.011523	0.010582	-0.006852	1.016927	-0.485503	0.134476	0.186875	-0.113506	-0.975804	0.351386	-0.919864	0.174293	-0.917391	-0.375455	-0.132015
19819	-9.614620	1.683380	-1.275560	-0.005043	0.007685	-0.004008	1.010535	-0.488160	0.132134	0.186923	-0.113419	-0.975805	0.351440	-0.919854	0.174237	-0.917360	-0.375506	-0.132081
19820	-9.616060	1.703110	-1.205490	0.007675	-0.000687	-0.002140	1.007429	-0.483929	0.128357	0.186991	-0.113396	-0.975795	0.351274	-0.919921	0.174217	-0.917410	-0.375348	-0.132184
19821	-9.599780	1.720510	-1.201990	0.016748	0.001167	-0.002467	1.011201	-0.483172	0.130743	0.186986	-0.113347	-0.975802	0.351124	-0.919991	0.174148	-0.917468	-0.375191	-0.132226
19822	-9.583130	1.677670	-1.232170	0.020384	-0.000867	0.001287	1.015702	-0.483378	0.119676	0.186972	-0.113393	-0.975799	0.350913	-0.920071	0.174155	-0.917552	-0.374983	-0.132236
19823	-9.574260	1.676380	-1.265620	0.027453	-0.005270	0.001996	1.012157	-0.480564	0.129714	0.186923	-0.113410	-0.975806	0.350657	-0.920176	0.174115	-0.917660	-0.374720	-0.132234
19824	-9.622620	1.753870	-1.263400	0.019491	-0.001219	0.004849	1.025797	-0.490363	0.126983	0.186720	-0.113480	-0.975837	0.350650	-0.920181	0.174102	-0.917704	-0.374686	-0.132024
19825	-9.654130	1.758590	-1.307920	0.016709	-0.001083	0.000513	1.012741	-0.486155	0.121750	0.186702	-0.113468	-0.975842	0.350496	-0.920247	0.174062	-0.917766	-0.374527	-0.132042
19826	-9.646380	1.716960	-1.304450	0.013888	-0.003194	-0.000845	1.022850	-0.475024	0.127907	0.186507	-0.113596	-0.975864	0.350592	-0.920200	0.174121	-0.917769	-0.374605	-0.131797
19827	-9.556950	1.733860	-1.298790	0.009670	-0.007847	-0.004015	1.016695	-0.478851	0.126000	0.186410	-0.113569	-0.975886	0.350512	-0.920244	0.174047	-0.917820	-0.374503	-0.131735
19828	-9.542030	1.741160	-1.240980	0.011068	-0.005305	-0.002203	1.016680	-0.481446	0.132347	0.186042	-0.113371	-0.975979	0.350564	-0.920285	0.173726	-0.917874	-0.374464	-0.131468
19829	-9.574940	1.735450	-1.231220	0.013608	-0.008024	-0.001685	1.008117	-0.482727	0.128275	0.185950	-0.113364	-0.975998	0.350444	-0.920342	0.173667	-0.917939	-0.374326	-0.131409
19830	-9.576530	1.755120	-1.160170	0.020147	-0.011647	-0.004080	1.016407	-0.484555	0.129605	0.185793	-0.113333	-0.976031	0.350240	-0.920442	0.173548	-0.918049	-0.374089	-0.131318
19831	-9.584170	1.735650	-1.196460	0.025771	-0.012645	-0.000650	1.013643	-0.487116	0.122876	0.185662	-0.113353	-0.976054	0.350006	-0.920543	0.173483	-0.918164	-0.373834	-0.131235
19832	-9.609370	1.688370	-1.182690	0.035983	-0.016056	-0.002268	1.016121	-0.484324	0.120446	0.185422	-0.113485	-0.976084	0.349802	-0.920620	0.173486	-0.918290	-0.373605	-0.131006
19833	-9.599650	1.726830	-1.252190	0.042741	-0.014122	0.001421	1.009629	-0.487786	0.134141	0.185283	-0.113530	-0.976105	0.349409	-0.920782	0.173420	-0.918468	-0.373192	-0.130937
19834	-9.653950	1.703960	-1.390560	0.037430	-0.006053	-0.004149	1.017263	-0.486392	0.127712	0.185187	-0.113619	-0.976113	0.349140	-0.920882	0.173429	-0.918590	-0.372917	-0.130866
19835	-9.588770	1.743770	-1.392250	0.008627	-0.009274	-0.012485	1.012464	-0.482798	0.128479	0.185044	-0.113520	-0.976152	0.349087	-0.920932	0.173273	-0.918639	-0.372824	-0.130785
19836	-9.556480	1.778000	-1.384320	-0.003802	-0.004265	-0.015076	1.016022	-0.475259	0.130993	0.184898	-0.113435	-0.976189	0.349208	-0.920908	0.173154	-0.918622	-0.372908	-0.130662
19837	-9.533700	1.712940	-1.339640	-0.016267	-0.001501	-0.014685	1.007556	-0.489478	0.127760	0.184819	-0.113287	-0.976221	0.349387	-0.920867	0.173010	-0.918570	-0.373054	-0.130613
19838	-9.593080	1.679940	-1.246600	-0.019963	0.001259	-0.013197	1.012786	-0.487789	0.129696	0.184772	-0.113165	-0.976244	0.349573	-0.920816	0.172903	-0.918508	-0.373217	-0.130582
19839	-9.610440	1.590710	-1.229820	-0.010340	-0.000641	-0.012681	1.012449	-0.480259	0.127216	0.184708	-0.113032	-0.976272	0.349694	-0.920796	0.172770	-0.918475	-0.373309	-0.130551
19840	-9.610800	1.619960	-1.212950	-0.004148	-0.000169	-0.009124	1.012644	-0.477779	0.122048	0.184670	-0.112998	-0.976283	0.349762	-0.920777	0.172734	-0.918457	-0.373365	-0.130518
19841	-9.693120	1.651280	-1.164540	0.010491	0.001424	-0.000783	1.016154	-0.483908	0.133382	0.184667	-0.112968	-0.976287	0.349669	-0.920820	0.172690	-0.918493	-0.373268	-0.130544
19842	-9.691200	1.731180	-1.238220	0.010258	-0.009358	-0.006143	1.017203	-0.480950	0.130172	0.184462	-0.112919	-0.976331	0.349622	-0.920863	0.172559	-0.918552	-0.373177	-0.130385
19843	-9.617170	1.770270	-1.273050	0.001767	-0.004527	-0.006403	1.018207	-0.481240	0.125012	0.184384	-0.112858	-0.976353	0.349620	-0.920880	0.172472	-0.918569	-0.373153	-0.130338
19844	-9.600820	1.757090	-1.286100	-0.004136	0.005050	-0.009842	1.014298	-0.483993	0.131379	0.184269	-0.112701	-0.976393	0.349741	-0.920866	0.172297	-0.918546	-0.373234	-0.130271
19845	-9.618220	1.698240	-1.253280	-0.016868	0.008198	-0.011004	1.014105	-0.481204	0.124246	0.184291	-0.112551	-0.976406	0.349919	-0.920819	0.172188	-0.918473	-0.373396	-0.130314
19846	-9.611470	1.615750	-1.213240	-0.014026	0.007335	-0.011910	1.020686	-0.479958	0.128907	0.184273	-0.112438	-0.976423	0.350102	-0.920766	0.172102	-0.918407	-0.373561	-0.130308
19847	-9.594650	1.542170	-1.260200	-0.008134	0.005954	-0.006927	1.020490	-0.479385	0.127756	0.184288	-0.112334	-0.976432	0.350192	-0.920746	0.172022	-0.918370	-0.373640	-0.130344
19848	-9.594840	1.571870	-1.244150	0.007128	0.008286	-0.003700	1.018950	-0.477294	0.128257	0.184195	-0.112161	-0.976469	0.350192	-0.920783	0.171823	-0.918388	-0.373601	-0.130326
19849	-9.562370	1.637500	-1.221010	0.007070	0.009017	0.001542	1.017033	-0.477896	0.132815	0.184267	-0.112122	-0.976460	0.350128	-0.920811	0.171805	-0.918399	-0.373544	-0.130418
19850	-9.553460	1.636240	-1.254870	0.007938	-0.001076	-0.000584	1.019782	-0.474030	0.129447	0.184141	-0.111968	-0.976502	0.350026	-0.920889	0.171596	-0.918463	-0.373399	-0.130382
19851	-9.561070	1.647390	-1.275490	0.009046	0.004833	0.001934	1.020276	-0.473702	0.129292	0.184175	-0.111947	-0.976497	0.349943	-0.920924	0.171578	-0.918487	-0.373319	-0.130436
19852	-9.625580	1.676750	-1.294190	0.015851	0.000823	0.001095	1.017094	-0.474830	0.130082	0.183963	-0.111726	-0.976563	0.349806	-0.921034	0.171269	-0.918582	-0.373115	-0.130354
19853	-9.584510	1.771490	-1.287230	0.011888	0.003971	0.001028	1.019604	-0.481791	0.128171	0.183985	-0.111699	-0.976562	0.349698	-0.921080	0.171236	-0.918619	-0.373007	-0.130404
19854	-9.618060	1.695570	-1.258080	0.010490	0.001426	-0.000781	1.012206	-0.481906	0.124747	0.183871	-0.111585	-0.976596	0.349630	-0.921136	0.171076	-0.918667	-0.372904	-0.130357
19855	-9.602770	1.673050	-1.217740	0.012177	0.000606	0.000321	1.012111	-0.484991	0.128411	0.183859	-0.111563	-0.976601	0.349522	-0.921185	0.171035	-0.918711	-0.372790	-0.130375
19856	-9.668110	1.631950	-1.216120	0.020090	0.002505	0.002000	1.016336	-0.488713	0.134114	0.183879	-0.111681	-0.976584	0.349405	-0.921210	0.171137	-0.918752	-0.372692	-0.130369
19857	-9.593780	1.671730	-1.252250	0.018379	0.006300	0.003161	1.010118	-0.484213	0.129021	0.183928	-0.111665	-0.976576	0.349234	-0.921279	0.171117	-0.918807	-0.372527	-0.130452
19858	-9.543550	1.735160	-1.295770	0.009611	0.006299	0.002061	1.014336	-0.477967	0.129200	0.184114	-0.111750	-0.976532	0.349097	-0.921306	0.171249	-0.918822	-0.372433	-0.130614
19859	-9.550860	1.716180	-1.333540	0.001409	0.007764	0.001089	1.013973	-0.481752	0.129099	0.184171	-0.111710	-0.976525	0.349085	-0.921314	0.171232	-0.918815	-0.372427	-0.130683
19860	-9.583320	1.680640	-1.341740	-0.001133	0.010481	0.000567	1.017345	-0.479248	0.128929	0.184212	-0.111655	-0.976524	0.349101	-0.921314	0.171197	-0.918800	-0.372442	-0.130739
19861	-9.641150	1.658830	-1.303420	0.000542	0.004443	0.002388	1.017310	-0.480718	0.130528	0.184244	-0.111639	-0.976520	0.349095	-0.921317	0.171193	-0.918796	-0.372440	-0.130774
19862	-9.642110	1.618870	-1.266710	0.009033	-0.000387	0.002655	1.014863	-0.481465	0.130960	0.184170	-0.111609	-0.976537	0.349030	-0.921354	0.171128	-0.918836	-0.372358	-0.130731
19863	-9.615880	1.675660	-1.333510	0.015549	-0.001034	0.002528	1.024749	-0.485737	0.131412	0.184151	-0.111615	-0.976540	0.348886	-0.921413	0.171105	-0.918894	-0.372211	-0.130738
19864	-9.577300	1.750760	-1.218790	0.011008	-0.004571	0.003051	1.015072	-0.482986	0.122879	0.184104	-0.111636	-0.976547	0.348803	-0.921446	0.171095	-0.918935	-0.372122	-0.130703
19865	-9.561030	1.768580	-1.214920	0.010478	-0.003796	-0.000057	1.020270	-0.482407	0.126043	0.184050	-0.111628	-0.976558	0.348711	-0.921489	0.171054	-0.918981	-0.372018	-0.130674
19866	-9.562100	1.728200	-1.177890	0.005985	0.000128	-0.003235	1.017340	-0.472631	0.125136	0.183905	-0.111672	-0.976580	0.348839	-0.921439	0.171058	-0.918962	-0.372127	-0.130502
19867	-9.596750	1.612040	-1.111590	0.016716	0.004140	-0.000199	1.020933	-0.480896	0.131534	0.183923	-0.111634	-0.976581	0.348690	-0.921505	0.171008	-0.919015	-0.371976	-0.130560
19868	-9.597510	1.541500	-1.092000	0.045558	0.001422	0.003633	1.011695	-0.483095	0.127176	0.183774	-0.111553	-0.976618	0.348312	-0.921682	0.170821	-0.919187	-0.371561	-0.130526
19869	-9.645460	1.558320	-1.124400	0.082308	0.000596	0.009155	1.014719	-0.480822	0.134035	0.183791	-0.111614	-0.976608	0.347543	-0.921981	0.170776	-0.919475	-0.370801	-0.130661
19870	-9.659990	1.680880	-1.170250	0.105540	-0.004126	0.007316	1.027718	-0.481713	0.129462	0.183791	-0.111722	-0.976596	0.346543	-0.922365	0.170736	-0.919852	-0.369812	-0.130806
19871	-9.606660	1.863670	-1.325890	0.104374	-0.004094	0.009342	1.025327	-0.480342	0.127940	0.183766	-0.111802	-0.976591	0.345570	-0.922743	0.170664	-0.920224	-0.368843	-0.130933
19872	-9.532370	1.902410	-1.362800	0.088051	-0.004892	-0.000101	1.018310	-0.481530	0.127498	0.183524	-0.111746	-0.976643	0.344920	-0.923030	0.170427	-0.920515	-0.368142	-0.130855
19873	-9.562410	1.854570	-1.494880	0.060333	-0.004455	-0.002966	1.016376	-0.484291	0.128857	0.183452	-0.111714	-0.976660	0.344375	-0.923259	0.170292	-0.920734	-0.367578	-0.130902
19874	-9.595220	1.817370	-1.502600	0.042899	-0.002965	-0.013405	1.016495	-0.484911	0.131912	0.183305	-0.111671	-0.976693	0.344134	-0.923373	0.170162	-0.920853	-0.367305	-0.130829
19875	-9.669800	1.775840	-1.467250	0.032737	-0.005513	-0.016314	1.012410	-0.484597	0.125646	0.183177	-0.111520	-0.976734	0.343867	-0.923514	0.169933	-0.920978	-0.366995	-0.130818
19876	-9.638450	1.739200	-1.439040	0.018039	-0.011593	-0.018695	1.011748	-0.476921	0.134098	0.183014	-0.111521	-0.976765	0.343849	-0.923532	0.169870	-0.921018	-0.366948	-0.130673
19877	-9.624900	1.705370	-1.343590	0.008179	-0.012292	-0.023037	1.019396	-0.474746	0.126568	0.182801	-0.111334	-0.976826	0.343821	-0.923591	0.169608	-0.921070	-0.366858	-0.130554
19878	-9.561090	1.704090	-1.307680	0.004807	-0.010660	-0.025247	1.014242	-0.467374	0.127356	0.182507	-0.111082	-0.976909	0.343818	-0.923656	0.169259	-0.921130	-0.366770	-0.130382
19879	-9.545900	1.619050	-1.298800	-0.008517	-0.011210	-0.023574	1.013473	-0.477764	0.124255	0.182301	-0.110885	-0.976970	0.343944	-0.923654	0.169013	-0.921124	-0.366835	-0.130245
19880	-9.596570	1.584510	-1.238280	-0.012561	-0.004324	-0.016168	1.016011	-0.478814	0.132643	0.181999	-0.110718	-0.977045	0.344150	-0.923622	0.168771	-0.921106	-0.366966	-0.129995
19881	-9.644670	1.569660	-1.285920	-0.030128	0.006857	-0.014618	1.017189	-0.479751	0.124492	0.181989	-0.110538	-0.977068	0.344460	-0.923530	0.168641	-0.920993	-0.367251	-0.129996
19882	-9.719530	1.589460	-1.217090	-0.040264	0.001318	-0.019775	1.014967	-0.473591	0.130937	0.181877	-0.110383	-0.977106	0.344940	-0.923373	0.168520	-0.920835	-0.367693	-0.129865
19883	-9.663090	1.600210	-1.202310	-0.033480	0.005502	-0.019073	1.012585	-0.478863	0.123158	0.181839	-0.110167	-0.977138	0.345289	-0.923273	0.168350	-0.920712	-0.368008	-0.129847
19884	-9.656290	1.517960	-1.161110	-0.035291	0.002597	-0.008966	1.014698	-0.482235	0.131653	0.181740	-0.110097	-0.977164	0.345681	-0.923135	0.168302	-0.920584	-0.368374	-0.129712
19885	-9.581920	1.527210	-1.213130	-0.032534	0.005463	-0.002374	1.013891	-0.473005	0.127650	0.181758	-0.110035	-0.977167	0.345991	-0.923021	0.168294	-0.920464	-0.368680	-0.129695
19886	-9.598400	1.539830	-1.200190	-0.032535	0.005461	-0.002372	1.015967	-0.480465	0.134479	0.181781	-0.109999	-0.977167	0.346291	-0.922905	0.168311	-0.920347	-0.368980	-0.129676
19887	-9.587780	1.487990	-1.320390	-0.037687	0.006419	0.002541	1.008095	-0.476613	0.123315	0.181825	-0.109979	-0.977161	0.346639	-0.922766	0.168358	-0.920207	-0.369334	-0.129659
19888	-9.595800	1.560350	-1.307840	-0.038246	0.010168	0.001689	1.020978	-0.478007	0.125743	0.181934	-0.110000	-0.977139	0.346991	-0.922614	0.168469	-0.920053	-0.369708	-0.129686
19889	-9.595440	1.691920	-1.295640	-0.035996	0.010816	0.002920	1.015849	-0.483119	0.128640	0.182020	-0.109968	-0.977126	0.347323	-0.922480	0.168518	-0.919911	-0.370052	-0.129715
19890	-9.651350	1.750670	-1.330670	-0.041902	0.001746	-0.000610	1.018585	-0.482758	0.132162	0.181982	-0.109997	-0.977130	0.347812	-0.922281	0.168599	-0.919733	-0.370539	-0.129580
19891	-9.612670	1.796010	-1.232150	-0.046939	0.001214	-0.006172	1.015161	-0.484292	0.128003	0.181948	-0.109917	-0.977145	0.348261	-0.922116	0.168574	-0.919570	-0.370973	-0.129497
19892	-9.513270	1.691440	-1.326530	-0.052080	0.012600	-0.002706	1.019219	-0.474841	0.129356	0.182125	-0.109906	-0.977114	0.348791	-0.921891	0.168706	-0.919334	-0.371534	-0.129566
19893	-9.564190	1.588350	-1.246570	-0.052628	0.002932	-0.004360	1.017797	-0.474872	0.128263	0.182114	-0.109837	-0.977124	0.349289	-0.921702	0.168707	-0.919147	-0.372022	-0.129490
19894	-9.606320	1.483850	-1.199390	-0.027464	-0.005199	-0.000579	1.018725	-0.472967	0.127826	0.181960	-0.109761	-0.977161	0.349516	-0.921634	0.168608	-0.919091	-0.372213	-0.129338
19895	-9.670750	1.483080	-1.233470	-0.000870	-0.008539	0.002023	1.014418	-0.472655	0.120608	0.181865	-0.109793	-0.977175	0.349526	-0.921631	0.168604	-0.919106	-0.372212	-0.129237
19896	-9.613340	1.566080	-1.238700	0.003016	-0.002750	0.008870	1.012830	-0.479628	0.126937	0.181682	-0.109829	-0.977205	0.349521	-0.921640	0.168567	-0.919145	-0.372179	-0.129058
19897	-9.563510	1.660540	-1.264390	-0.003208	-0.005473	0.008293	1.007960	-0.469899	0.130303	0.181636	-0.109907	-0.977205	0.349542	-0.921621	0.168626	-0.919146	-0.372202	-0.128983
19898	-9.561010	1.681270	-1.371180	-0.007206	-0.004568	0.011202	1.012141	-0.475103	0.127733	0.181619	-0.109995	-0.977198	0.349498	-0.921625	0.168696	-0.919166	-0.372167	-0.128941
19899	-9.575930	1.674280	-1.428300	-0.013946	0.003921	0.006073	1.016543	-0.481587	0.121737	0.181651	-0.110018	-0.977189	0.349621	-0.921569	0.168747	-0.919112	-0.372299	-0.128939
19900	-9.567190	1.704010	-1.444890	-0.022423	0.000548	0.004267	1.012909	-0.474162	0.126267	0.181611	-0.110093	-0.977188	0.349888	-0.921450	0.168841	-0.919019	-0.372570	-0.128825
19901	-9.593380	1.678560	-1.361310	-0.031542	0.004642	0.009114	1.018280	-0.478780	0.129001	0.181661	-0.110142	-0.977174	0.350169	-0.921325	0.168945	-0.918902	-0.372866	-0.128800
19902	-9.645850	1.626940	-1.194500	-0.039480	0.005713	0.009696	1.008399	-0.473983	0.123130	0.181699	-0.110165	-0.977164	0.350488	-0.921188	0.169026	-0.918773	-0.373196	-0.128768
19903	-9.640940	1.496560	-1.063070	-0.041144	0.003552	0.006338	1.019292	-0.480997	0.124386	0.181729	-0.110192	-0.977155	0.350862	-0.921030	0.169115	-0.918624	-0.373579	-0.128716
19904	-9.608940	1.463170	-1.035360	-0.016885	0.003267	0.015204	1.021039	-0.480620	0.123332	0.181732	-0.110343	-0.977138	0.351052	-0.920926	0.169286	-0.918551	-0.373790	-0.128625
19905	-9.648300	1.541230	-1.066730	0.006809	0.001512	0.023941	1.020513	-0.477924	0.127189	0.181804	-0.110540	-0.977102	0.350953	-0.920927	0.169485	-0.918575	-0.373730	-0.128634
19906	-9.604770	1.688120	-1.150200	0.026683	-0.001541	0.019868	1.020840	-0.476710	0.124787	0.181760	-0.110700	-0.977092	0.350751	-0.920985	0.169591	-0.918661	-0.373540	-0.128570
19907	-9.585900	1.757720	-1.237540	0.026091	-0.000033	0.022004	1.022141	-0.474222	0.131442	0.181811	-0.110885	-0.977062	0.350478	-0.921060	0.169746	-0.918754	-0.373300	-0.128596
19908	-9.536480	1.782530	-1.243600	0.022742	-0.001372	0.017542	1.019147	-0.478744	0.125468	0.181734	-0.110920	-0.977072	0.350205	-0.921170	0.169711	-0.918874	-0.373017	-0.128563
19909	-9.559900	1.747150	-1.284450	0.012817	-0.001331	0.018449	1.018559	-0.481386	0.123955	0.181759	-0.111076	-0.977049	0.350061	-0.921200	0.169848	-0.918924	-0.372898	-0.128553
19910	-9.648960	1.701070	-1.306150	0.015081	-0.008880	0.018138	1.011030	-0.480260	0.126792	0.181653	-0.111278	-0.977046	0.349982	-0.921204	0.169987	-0.918975	-0.372827	-0.128394
19911	-9.624300	1.618290	-1.331580	0.028436	-0.011299	0.014197	1.014928	-0.483127	0.128436	0.181572	-0.111433	-0.977044	0.349702	-0.921296	0.170063	-0.919097	-0.372553	-0.128314
19912	-9.550320	1.719360	-1.333360	0.031855	-0.005479	0.012700	1.021334	-0.482278	0.131755	0.181604	-0.111601	-0.977019	0.349385	-0.921393	0.170189	-0.919212	-0.372263	-0.128337
19913	-9.534060	1.768120	-1.313140	0.028482	-0.003842	0.010497	1.010658	-0.479642	0.133336	0.181579	-0.111694	-0.977013	0.349112	-0.921490	0.170229	-0.919321	-0.371996	-0.128329
19914	-9.517640	1.786580	-1.309430	0.017161	-0.006341	0.009596	1.020391	-0.477465	0.128022	0.181626	-0.111744	-0.976998	0.348827	-0.921593	0.170255	-0.919419	-0.371726	-0.128406
19915	-9.542560	1.740450	-1.295990	0.008128	-0.005951	0.006941	1.012662	-0.480998	0.123122	0.181569	-0.111812	-0.977001	0.348747	-0.921617	0.170286	-0.919461	-0.371645	-0.128344
19916	-9.625640	1.702660	-1.226630	-0.004312	-0.006162	0.005063	1.019034	-0.474230	0.133217	0.181457	-0.111869	-0.977015	0.348821	-0.921585	0.170308	-0.919455	-0.371707	-0.128205
19917	-9.674530	1.649960	-1.236860	-0.008309	-0.005252	0.007974	1.013144	-0.476475	0.124962	0.181410	-0.111944	-0.977015	0.348890	-0.921548	0.170370	-0.919438	-0.371778	-0.128122
19918	-9.707270	1.645470	-1.226790	-0.003781	-0.006937	0.008172	1.016699	-0.479456	0.118927	0.181305	-0.111932	-0.977036	0.348820	-0.921585	0.170309	-0.919485	-0.371688	-0.128044
19919	-9.684330	1.613030	-1.164650	0.000695	-0.016082	0.012078	1.010103	-0.476681	0.131164	0.181173	-0.112084	-0.977043	0.348799	-0.921577	0.170399	-0.919519	-0.371663	-0.127870
19920	-9.601410	1.682410	-1.215570	0.004175	-0.010999	0.005334	1.020030	-0.480020	0.120198	0.181024	-0.112166	-0.977061	0.348766	-0.921586	0.170415	-0.919561	-0.371615	-0.127710
19921	-9.535000	1.764130	-1.253360	0.000716	-0.019060	0.009820	1.011125	-0.479199	0.121092	0.180857	-0.112308	-0.977076	0.348749	-0.921580	0.170483	-0.919600	-0.371587	-0.127507
19922	-9.501210	1.810070	-1.298800	-0.015282	0.000658	-0.000969	1.013142	-0.479856	0.129870	0.180734	-0.112341	-0.977095	0.349035	-0.921468	0.170506	-0.919516	-0.371856	-0.127330
19923	-9.550160	1.756790	-1.309600	-0.029129	0.006101	-0.003113	1.023261	-0.485136	0.121390	0.180752	-0.112270	-0.977100	0.349316	-0.921365	0.170486	-0.919406	-0.372132	-0.127321
19924	-9.559510	1.627330	-1.289470	-0.039303	0.011756	-0.004480	1.021274	-0.482098	0.130042	0.180824	-0.112195	-0.977095	0.349741	-0.921201	0.170501	-0.919230	-0.372561	-0.127336
19925	-9.609860	1.624810	-1.213920	-0.041048	0.013309	-0.000336	1.014225	-0.480245	0.123407	0.180918	-0.112124	-0.977086	0.350127	-0.921050	0.170523	-0.919065	-0.372954	-0.127377
19926	-9.619250	1.526020	-1.177560	-0.040785	0.012919	0.001222	1.009962	-0.476030	0.123167	0.181025	-0.112065	-0.977073	0.350506	-0.920899	0.170561	-0.918899	-0.373346	-0.127426
19927	-9.635570	1.539100	-1.165010	-0.036560	0.009377	0.002847	1.012699	-0.477493	0.137610	0.181094	-0.112037	-0.977063	0.350845	-0.920761	0.170609	-0.918756	-0.373693	-0.127436
19928	-9.651820	1.552900	-1.152040	-0.031635	0.003157	0.017357	1.014026	-0.474991	0.129027	0.181214	-0.112099	-0.977034	0.350932	-0.920706	0.170725	-0.918699	-0.373810	-0.127506
19929	-9.593570	1.576600	-1.191020	-0.030443	0.005357	0.012371	1.020065	-0.479423	0.123210	0.181280	-0.112174	-0.977013	0.351196	-0.920581	0.170857	-0.918585	-0.374096	-0.127488
19930	-9.575870	1.636320	-1.224460	-0.026526	0.008155	0.016965	1.017915	-0.473818	0.123756	0.181333	-0.112218	-0.976998	0.351380	-0.920494	0.170945	-0.918504	-0.374296	-0.127485
19931	-9.607100	1.642820	-1.268920	-0.023399	0.003926	0.015351	1.013702	-0.478481	0.122530	0.181396	-0.112325	-0.976974	0.351575	-0.920392	0.171097	-0.918417	-0.374516	-0.127465
19932	-9.629790	1.708330	-1.313340	-0.015446	0.008062	0.014051	1.017922	-0.472181	0.122514	0.181389	-0.112360	-0.976972	0.351713	-0.920330	0.171146	-0.918366	-0.374658	-0.127419
19933	-9.605460	1.716340	-1.290280	-0.022762	0.018076	0.011071	1.010871	-0.480508	0.126707	0.181566	-0.112375	-0.976937	0.351910	-0.920234	0.171255	-0.918256	-0.374888	-0.127538
19934	-9.613930	1.718790	-1.258130	-0.039146	0.018048	0.006871	1.012444	-0.478360	0.128422	0.181661	-0.112300	-0.976928	0.352231	-0.920109	0.171267	-0.918113	-0.375217	-0.127592
19935	-9.591210	1.776630	-1.148110	-0.030907	0.018819	0.004864	1.014342	-0.482100	0.122348	0.181823	-0.112254	-0.976903	0.352514	-0.919990	0.171325	-0.917973	-0.375523	-0.127704
19936	-9.621830	1.631440	-1.276490	-0.047950	-0.000582	0.005650	1.019711	-0.483756	0.127967	0.181816	-0.112296	-0.976899	0.352925	-0.919815	0.171418	-0.917816	-0.375939	-0.127605
19937	-9.631800	1.593450	-1.205050	-0.062668	-0.006655	0.003265	1.012218	-0.484332	0.125978	0.181739	-0.112331	-0.976910	0.353502	-0.919578	0.171502	-0.917610	-0.376508	-0.127414
19938	-9.672010	1.570400	-1.231760	-0.042880	0.002162	0.008249	1.020296	-0.482580	0.124561	0.181825	-0.112399	-0.976886	0.353857	-0.919414	0.171649	-0.917456	-0.376888	-0.127399
19939	-9.630210	1.576200	-1.273410	-0.055689	-0.007374	0.011493	1.017865	-0.484454	0.119894	0.181770	-0.112513	-0.976883	0.354354	-0.919193	0.171804	-0.917275	-0.377392	-0.127213
19940	-9.572610	1.720410	-1.243770	-0.043755	-0.001168	0.009552	1.012491	-0.478839	0.116225	0.181732	-0.112612	-0.976879	0.354835	-0.918981	0.171948	-0.917096	-0.377879	-0.127050
19941	-9.505680	1.772980	-1.298480	-0.029055	-0.000323	0.012652	1.016094	-0.482653	0.119382	0.181746	-0.112710	-0.976865	0.355085	-0.918859	0.172081	-0.916996	-0.378146	-0.126978
19942	-9.562330	1.792700	-1.296090	-0.024469	0.005463	0.009160	1.010033	-0.482832	0.127989	0.181711	-0.112808	-0.976860	0.355427	-0.918704	0.172207	-0.916871	-0.378494	-0.126843
19943	-9.547160	1.831590	-1.221760	-0.025342	0.002138	0.010452	1.011075	-0.484596	0.122720	0.181739	-0.112877	-0.976847	0.355648	-0.918598	0.172314	-0.916780	-0.378730	-0.126801
19944	-9.539570	1.881770	-1.167700	-0.020795	0.005673	0.009937	1.014506	-0.477020	0.127859	0.181890	-0.112969	-0.976808	0.355761	-0.918524	0.172474	-0.916706	-0.378882	-0.126881
19945	-9.540320	1.812680	-1.148000	-0.023110	0.005746	0.013955	1.018421	-0.489057	0.129684	0.181965	-0.113056	-0.976784	0.355955	-0.918423	0.172612	-0.916616	-0.379101	-0.126878
19946	-9.597700	1.701800	-1.159930	-0.013749	0.004233	0.012908	1.022122	-0.481778	0.129673	0.182099	-0.113089	-0.976755	0.355945	-0.918412	0.172694	-0.916593	-0.379119	-0.126988
19947	-9.655490	1.681130	-1.121180	0.000406	0.000641	0.013601	1.013500	-0.487501	0.124379	0.182126	-0.113193	-0.976738	0.355924	-0.918400	0.172799	-0.916596	-0.379116	-0.126977
19948	-9.644980	1.661580	-1.225050	0.018500	-0.003137	0.016620	1.009388	-0.482531	0.120573	0.182186	-0.113316	-0.976713	0.355674	-0.918477	0.172903	-0.916681	-0.378892	-0.127030
19949	-9.595780	1.746090	-1.197040	0.024206	0.000360	0.014097	1.017511	-0.475216	0.120240	0.182213	-0.113424	-0.976695	0.355434	-0.918555	0.172983	-0.916769	-0.378670	-0.127058
19950	-9.552780	1.821890	-1.259770	0.025605	-0.005293	0.014347	1.020548	-0.485775	0.133624	0.182103	-0.113547	-0.976701	0.355210	-0.918634	0.173024	-0.916877	-0.378443	-0.126953
19951	-9.552490	1.792670	-1.276800	0.014905	0.001159	0.009898	1.016588	-0.473038	0.117799	0.182122	-0.113614	-0.976690	0.355063	-0.918682	0.173074	-0.916931	-0.378307	-0.126972
19952	-9.561030	1.734040	-1.277530	0.005341	0.002353	0.004144	1.019193	-0.477724	0.122149	0.182085	-0.113532	-0.976706	0.354960	-0.918741	0.172968	-0.916978	-0.378187	-0.126990
19953	-9.545630	1.681790	-1.254230	0.013219	0.001983	0.008801	1.012057	-0.488560	0.124328	0.182107	-0.113585	-0.976696	0.354830	-0.918784	0.173009	-0.917024	-0.378067	-0.127014
19954	-9.618680	1.683220	-1.256190	0.012914	0.000124	0.010224	1.019613	-0.475965	0.132093	0.182110	-0.113669	-0.976686	0.354711	-0.918818	0.173072	-0.917069	-0.377960	-0.127006
19955	-9.618430	1.684200	-1.256800	0.004978	0.009400	0.012380	1.017900	-0.485423	0.123217	0.182213	-0.113727	-0.976660	0.354651	-0.918825	0.173159	-0.917072	-0.377925	-0.127088
19956	-9.643430	1.668470	-1.227910	-0.001765	0.004511	0.006420	1.015645	-0.479243	0.120832	0.182242	-0.113657	-0.976663	0.354580	-0.918864	0.173095	-0.917094	-0.377850	-0.127155
19957	-9.585250	1.721190	-1.250510	0.006154	0.006392	0.008101	1.018151	-0.486606	0.123913	0.182302	-0.113687	-0.976648	0.354516	-0.918881	0.173137	-0.917107	-0.377800	-0.127210
19958	-9.593960	1.722950	-1.217570	0.005298	0.000099	0.007122	1.014497	-0.479770	0.134114	0.182264	-0.113737	-0.976649	0.354508	-0.918878	0.173168	-0.917117	-0.377792	-0.127157
19959	-9.553430	1.717480	-1.206880	0.014376	0.001941	0.006795	1.017599	-0.480885	0.117146	0.182278	-0.113772	-0.976643	0.354371	-0.918927	0.173187	-0.917167	-0.377662	-0.127183
19960	-9.601280	1.735320	-1.238370	0.014921	-0.001815	0.007632	1.007535	-0.479634	0.121908	0.182238	-0.113772	-0.976650	0.354177	-0.919010	0.173145	-0.917250	-0.377460	-0.127184
19961	-9.602420	1.725760	-1.185150	0.014356	0.004910	0.009066	1.011136	-0.480827	0.124013	0.182288	-0.113816	-0.976636	0.354036	-0.919057	0.173186	-0.917295	-0.377333	-0.127238
19962	-9.593330	1.694970	-1.235770	0.014394	-0.001029	0.004526	1.018356	-0.484144	0.123362	0.182256	-0.113857	-0.976637	0.353870	-0.919120	0.173189	-0.917365	-0.377167	-0.127225
19963	-9.616090	1.759190	-1.279620	0.011852	-0.006497	0.002449	1.013070	-0.483273	0.125663	0.182178	-0.113883	-0.976648	0.353764	-0.919165	0.173169	-0.917422	-0.377051	-0.127163
19964	-9.607420	1.818420	-1.278780	0.007608	-0.008169	0.001543	1.011120	-0.474329	0.125089	0.182086	-0.113914	-0.976662	0.353695	-0.919194	0.173153	-0.917466	-0.376969	-0.127081
19965	-9.559460	1.770990	-1.263690	0.003932	-0.008376	0.000768	1.013283	-0.482781	0.125538	0.181984	-0.113932	-0.976679	0.353664	-0.919211	0.173126	-0.917498	-0.376923	-0.126988
19966	-9.560760	1.700430	-1.242870	0.000845	-0.010088	-0.002147	1.016825	-0.477344	0.124692	0.181837	-0.113881	-0.976712	0.353591	-0.919261	0.173011	-0.917556	-0.376817	-0.126888
19967	-9.602450	1.635970	-1.232840	0.003057	-0.011700	0.002061	1.016312	-0.485815	0.124773	0.181709	-0.113923	-0.976731	0.353567	-0.919273	0.172998	-0.917591	-0.376775	-0.126761
19968	-9.620170	1.608380	-1.182180	0.004178	-0.005800	0.004592	1.010569	-0.471975	0.128759	0.181628	-0.113936	-0.976745	0.353508	-0.919300	0.172971	-0.917629	-0.376703	-0.126693
19969	-9.651710	1.644030	-1.209270	-0.002094	-0.002564	0.008550	1.016908	-0.483719	0.130757	0.181607	-0.114003	-0.976741	0.353519	-0.919286	0.173027	-0.917629	-0.376719	-0.126646
19970	-9.627660	1.651190	-1.184980	-0.009138	-0.001120	0.005577	1.016337	-0.475061	0.122552	0.181611	-0.113928	-0.976749	0.353417	-0.919340	0.172944	-0.917667	-0.376609	-0.126698
19971	-9.602270	1.638310	-1.231160	-0.003778	-0.001739	0.007451	1.013732	-0.474410	0.125184	0.181594	-0.113981	-0.976746	0.353445	-0.919321	0.172991	-0.917660	-0.376640	-0.126657
19972	-9.609630	1.620350	-1.268330	-0.010858	0.005645	0.009018	1.016012	-0.483803	0.119297	0.181552	-0.113908	-0.976762	0.353514	-0.919308	0.172916	-0.917642	-0.376692	-0.126634
19973	-9.537410	1.580350	-1.230320	-0.015121	0.006943	0.010383	1.017189	-0.486751	0.121832	0.181625	-0.113955	-0.976743	0.353641	-0.919243	0.173005	-0.917579	-0.376838	-0.126658
19974	-9.569930	1.546120	-1.238320	0.001852	0.005437	0.012443	1.019301	-0.485609	0.118208	0.181669	-0.114083	-0.976720	0.353703	-0.919191	0.173152	-0.917546	-0.376925	-0.126637
19975	-9.618950	1.584920	-1.199440	0.013641	-0.000347	0.020139	1.014551	-0.481957	0.118084	0.181709	-0.114246	-0.976693	0.353548	-0.919223	0.173300	-0.917598	-0.376798	-0.126639
19976	-9.649150	1.782490	-1.196410	0.016499	-0.004183	0.016960	1.013323	-0.488043	0.121405	0.181627	-0.114443	-0.976685	0.353530	-0.919202	0.173450	-0.917621	-0.376791	-0.126493
19977	-9.583320	1.854650	-1.181290	0.002939	-0.002075	0.014121	1.009896	-0.484495	0.128920	0.181629	-0.114558	-0.976671	0.353484	-0.919200	0.173554	-0.917638	-0.376761	-0.126459
19978	-9.598160	1.878680	-1.221940	-0.007813	0.005107	0.014912	1.012105	-0.483995	0.128435	0.181775	-0.114709	-0.976627	0.353476	-0.919166	0.173751	-0.917612	-0.376798	-0.126535
19979	-9.623070	1.803020	-1.226570	-0.016188	0.011492	0.006436	1.015250	-0.485597	0.130158	0.181875	-0.114703	-0.976609	0.353620	-0.919100	0.173804	-0.917537	-0.376959	-0.126600
19980	-9.655660	1.768400	-1.234620	-0.020155	0.006460	0.004815	1.022091	-0.481541	0.123239	0.182011	-0.114683	-0.976586	0.353653	-0.919081	0.173841	-0.917498	-0.377013	-0.126725
19981	-9.582280	1.738090	-1.249940	-0.011675	0.001608	0.005064	1.014776	-0.478436	0.121031	0.182016	-0.114701	-0.976583	0.353757	-0.919034	0.173875	-0.917456	-0.377121	-0.126702
19982	-9.517840	1.738820	-1.215000	-0.002008	0.001937	0.002595	1.012177	-0.483710	0.122199	0.181925	-0.114636	-0.976607	0.353836	-0.919020	0.173790	-0.917444	-0.377175	-0.126630
19983	-9.517750	1.708990	-1.231970	-0.000324	0.001110	0.003695	1.017599	-0.480537	0.124362	0.181920	-0.114643	-0.976607	0.353839	-0.919018	0.173795	-0.917444	-0.377179	-0.126623
19984	-9.517630	1.679290	-1.248940	0.003614	0.000921	0.006025	1.016421	-0.481308	0.128673	0.181897	-0.114660	-0.976610	0.353803	-0.919031	0.173797	-0.917462	-0.377141	-0.126602
19985	-9.566750	1.687040	-1.226870	0.009851	0.003621	0.006607	1.014545	-0.477562	0.125098	0.181926	-0.114685	-0.976602	0.353708	-0.919064	0.173818	-0.917493	-0.377053	-0.126636
19986	-9.591920	1.670910	-1.197620	0.004771	0.000881	0.004016	1.010726	-0.484883	0.122576	0.181902	-0.114612	-0.976614	0.353574	-0.919133	0.173723	-0.917549	-0.376906	-0.126668
19987	-9.615760	1.695160	-1.205210	0.003905	0.005748	0.006873	1.011421	-0.480590	0.121050	0.181951	-0.114631	-0.976603	0.353533	-0.919143	0.173753	-0.917556	-0.376876	-0.126713
19988	-9.663460	1.683090	-1.254060	-0.004575	0.010601	0.006624	1.016080	-0.483221	0.117708	0.182032	-0.114665	-0.976584	0.353583	-0.919111	0.173823	-0.917520	-0.376945	-0.126764
19989	-9.637940	1.730430	-1.267850	-0.013888	0.014383	0.004689	1.006264	-0.491054	0.127754	0.182153	-0.114631	-0.976565	0.353709	-0.919056	0.173855	-0.917448	-0.377088	-0.126863
19990	-9.582280	1.732390	-1.200370	-0.017855	0.009352	0.003066	1.017491	-0.482600	0.128381	0.182267	-0.114688	-0.976537	0.353874	-0.918970	0.173977	-0.917361	-0.377281	-0.126913
19991	-9.582040	1.702920	-1.217990	-0.015618	0.012956	0.006570	1.012817	-0.492810	0.125261	0.182382	-0.114677	-0.976517	0.354012	-0.918907	0.174029	-0.917285	-0.377439	-0.126995
19992	-9.566700	1.650920	-1.195090	-0.012235	0.008333	0.006497	1.022437	-0.483130	0.123131	0.182524	-0.114715	-0.976486	0.354053	-0.918872	0.174126	-0.917241	-0.377510	-0.127101
19993	-9.615720	1.658990	-1.173630	0.003607	0.012075	0.009867	1.008709	-0.485003	0.125067	0.182642	-0.114738	-0.976462	0.354009	-0.918878	0.174187	-0.917235	-0.377490	-0.127208
19994	-9.573720	1.694140	-1.200340	0.008102	0.005159	0.010763	1.019901	-0.482592	0.120159	0.182690	-0.114793	-0.976446	0.353925	-0.918899	0.174246	-0.917258	-0.377421	-0.127246
19995	-9.573460	1.695140	-1.201020	0.017135	0.004736	0.013417	1.015346	-0.479923	0.121769	0.182754	-0.114876	-0.976424	0.353750	-0.918952	0.174325	-0.917313	-0.377268	-0.127304
19996	-9.612130	1.712660	-1.266480	0.020221	0.006442	0.016336	1.013036	-0.472822	0.129587	0.182749	-0.114951	-0.976416	0.353638	-0.918985	0.174377	-0.917357	-0.377165	-0.127292
19997	-9.628240	1.726280	-1.254300	0.015451	0.005563	0.012319	1.010157	-0.477653	0.126569	0.182815	-0.115020	-0.976396	0.353481	-0.919032	0.174447	-0.917404	-0.377029	-0.127356
19998	-9.601260	1.814370	-1.304390	0.011157	0.001644	0.014389	1.016359	-0.483377	0.128017	0.182809	-0.114998	-0.976400	0.353226	-0.919141	0.174388	-0.917503	-0.376770	-0.127407
19999	-9.608580	1.916750	-1.274840	0.000325	0.010047	0.000142	1.006856	-0.489229	0.121338	0.182873	-0.114939	-0.976395	0.353230	-0.919145	0.174357	-0.917489	-0.376777	-0.127488
20000	-9.615940	1.928330	-1.295920	-0.012757	0.009128	0.003382	1.013159	-0.483765	0.129030	0.182978	-0.114966	-0.976372	0.353319	-0.919096	0.174436	-0.917434	-0.376889	-0.127555
20001	-9.569360	1.870710	-1.228320	-0.022295	0.007372	-0.004656	1.017896	-0.483454	0.122442	0.183001	-0.114872	-0.976378	0.353539	-0.919021	0.174388	-0.917344	-0.377101	-0.127570
20002	-9.572150	1.729490	-1.188700	-0.005309	0.002879	-0.004857	1.012284	-0.481768	0.116558	0.182977	-0.114777	-0.976394	0.353583	-0.919021	0.174295	-0.917332	-0.377128	-0.127577
20003	-9.588610	1.681190	-1.209630	0.008296	0.003011	-0.004986	1.014712	-0.490274	0.121816	0.182959	-0.114697	-0.976407	0.353523	-0.919062	0.174204	-0.917359	-0.377054	-0.127603
20004	-9.572230	1.698360	-1.206260	0.008557	0.002616	-0.003431	1.011154	-0.483924	0.125748	0.182906	-0.114715	-0.976415	0.353581	-0.919039	0.174208	-0.917347	-0.377105	-0.127537
20005	-9.554440	1.725770	-1.256420	0.007986	0.001152	-0.003563	1.017457	-0.489039	0.125034	0.182876	-0.114655	-0.976428	0.353521	-0.919076	0.174132	-0.917376	-0.377032	-0.127544
20006	-9.530510	1.701800	-1.249360	-0.005946	0.002130	0.000262	1.017883	-0.486914	0.120316	0.182902	-0.114663	-0.976422	0.353562	-0.919056	0.174155	-0.917355	-0.377079	-0.127556
20007	-9.605150	1.662250	-1.214240	-0.007022	-0.001514	-0.005252	1.016387	-0.480224	0.117065	0.182841	-0.114598	-0.976441	0.353643	-0.919039	0.174082	-0.917336	-0.377140	-0.127511
20008	-9.588830	1.679580	-1.210110	-0.015531	-0.001879	-0.004799	1.016862	-0.483209	0.128413	0.182691	-0.114569	-0.976472	0.353957	-0.918926	0.174040	-0.917245	-0.377425	-0.127326
20009	-9.596350	1.690940	-1.230330	-0.011059	0.005329	0.002211	1.020095	-0.484822	0.128342	0.182719	-0.114547	-0.976470	0.354062	-0.918885	0.174045	-0.917199	-0.377532	-0.127341
20010	-9.638080	1.717270	-1.171020	-0.007938	0.001099	0.000585	1.022318	-0.485768	0.128415	0.182723	-0.114480	-0.976477	0.354072	-0.918892	0.173985	-0.917194	-0.377534	-0.127368
20011	-9.620240	1.715070	-1.237600	-0.000571	-0.001464	-0.000132	1.015025	-0.488870	0.129233	0.182680	-0.114462	-0.976487	0.354085	-0.918893	0.173953	-0.917198	-0.377537	-0.127334
20012	-9.570920	1.768150	-1.226620	0.008784	0.008158	0.002670	1.014821	-0.483821	0.125835	0.182796	-0.114427	-0.976469	0.353937	-0.918952	0.173944	-0.917232	-0.377405	-0.127480
20013	-9.585860	1.790770	-1.267910	0.007969	0.004121	-0.001289	1.002674	-0.487480	0.121701	0.182801	-0.114377	-0.976474	0.353873	-0.918986	0.173890	-0.917255	-0.377335	-0.127517
20014	-9.618720	1.785220	-1.259110	0.001779	0.003677	-0.004855	1.015476	-0.480057	0.120796	0.182833	-0.114373	-0.976469	0.353839	-0.918999	0.173894	-0.917262	-0.377306	-0.127554
20015	-9.569520	1.777140	-1.281840	0.013458	0.002065	-0.009911	1.011232	-0.482918	0.119490	0.182789	-0.114251	-0.976491	0.353740	-0.919064	0.173749	-0.917309	-0.377184	-0.127580
20016	-9.579980	1.736920	-1.212080	0.004949	0.001699	-0.009459	1.023956	-0.484187	0.124966	0.182678	-0.114159	-0.976523	0.353801	-0.919064	0.173627	-0.917308	-0.377212	-0.127503
20017	-9.541040	1.659690	-1.181570	0.003182	0.006210	-0.003036	1.015529	-0.482399	0.126366	0.182696	-0.114085	-0.976528	0.353784	-0.919083	0.173562	-0.917311	-0.377189	-0.127551
20018	-9.588830	1.616480	-1.247260	0.013373	0.005748	-0.002387	1.017064	-0.488474	0.123898	0.182690	-0.113987	-0.976540	0.353684	-0.919142	0.173454	-0.917350	-0.377075	-0.127603
20019	-9.606600	1.588350	-1.198260	0.012784	0.007252	-0.000246	1.012983	-0.478469	0.126578	0.182728	-0.113935	-0.976539	0.353574	-0.919193	0.173404	-0.917385	-0.376965	-0.127678
20020	-9.612680	1.669910	-1.239320	0.013634	0.005354	-0.000831	1.021426	-0.484514	0.127723	0.182749	-0.113892	-0.976540	0.353445	-0.919252	0.173354	-0.917431	-0.376834	-0.127738
20021	-9.602380	1.769130	-1.276400	0.011071	0.002859	-0.000640	1.014108	-0.476126	0.127513	0.182745	-0.113853	-0.976546	0.353351	-0.919298	0.173303	-0.917468	-0.376734	-0.127767
20022	-9.641360	1.845380	-1.308070	0.010269	0.007008	-0.003033	1.019700	-0.483892	0.128037	0.182750	-0.113711	-0.976561	0.353226	-0.919374	0.173154	-0.917515	-0.376591	-0.127850
20023	-9.600960	1.838950	-1.297760	-0.011534	0.008366	-0.003884	1.011793	-0.485751	0.116467	0.182785	-0.113621	-0.976565	0.353346	-0.919339	0.173099	-0.917462	-0.376705	-0.127893
20024	-9.585960	1.815780	-1.257830	-0.019356	0.010998	-0.011530	1.022441	-0.477469	0.123835	0.182799	-0.113501	-0.976577	0.353621	-0.919246	0.173029	-0.917353	-0.376967	-0.127901
20025	-9.603800	1.726840	-1.242210	-0.012038	0.006184	-0.009264	1.020189	-0.488964	0.121926	0.182794	-0.113370	-0.976593	0.353755	-0.919214	0.172923	-0.917302	-0.377084	-0.127922
20026	-9.581230	1.632030	-1.215480	-0.007271	0.007064	-0.005242	1.011225	-0.476594	0.118207	0.182756	-0.113265	-0.976612	0.353932	-0.919163	0.172834	-0.917242	-0.377241	-0.127894
20027	-9.549810	1.596300	-1.188440	-0.005521	0.005520	-0.009391	1.010286	-0.488754	0.119719	0.182744	-0.113135	-0.976629	0.354007	-0.919156	0.172718	-0.917215	-0.377297	-0.127920
20028	-9.549840	1.595790	-1.188890	0.002872	0.004353	-0.001612	1.014790	-0.479923	0.122429	0.182712	-0.113163	-0.976632	0.354087	-0.919121	0.172743	-0.917191	-0.377374	-0.127864
20029	-9.582630	1.590530	-1.180230	0.004534	0.006493	0.001762	1.015086	-0.480634	0.126804	0.182749	-0.113133	-0.976629	0.354049	-0.919139	0.172723	-0.917198	-0.377339	-0.127917
20030	-9.637790	1.559140	-1.266020	0.008180	0.001478	0.003247	1.009756	-0.475853	0.127946	0.182718	-0.113122	-0.976636	0.353970	-0.919176	0.172690	-0.917235	-0.377253	-0.127908
20031	-9.636350	1.629960	-1.286280	0.009272	0.002154	0.006489	1.011689	-0.489213	0.121652	0.182731	-0.113151	-0.976630	0.353880	-0.919206	0.172710	-0.917267	-0.377169	-0.127926
20032	-9.618540	1.748730	-1.285780	0.012656	-0.002468	0.006420	1.017243	-0.482044	0.128528	0.182724	-0.113235	-0.976622	0.353729	-0.919254	0.172766	-0.917326	-0.377028	-0.127916
20033	-9.617150	1.819440	-1.305750	-0.001421	0.000434	0.000453	1.022086	-0.481806	0.129301	0.182701	-0.113215	-0.976628	0.353749	-0.919251	0.172741	-0.917323	-0.377041	-0.127899
20034	-9.584270	1.824720	-1.315000	-0.009620	0.001925	-0.000522	1.019681	-0.484394	0.129971	0.182695	-0.113128	-0.976639	0.353792	-0.919249	0.172662	-0.917308	-0.377071	-0.127918
20035	-9.570650	1.761790	-1.237800	-0.025139	0.008228	-0.003763	1.020506	-0.485772	0.124258	0.182728	-0.113040	-0.976643	0.354036	-0.919162	0.172627	-0.917207	-0.377311	-0.127936
20036	-9.606210	1.615470	-1.188940	-0.020024	0.005029	-0.005707	1.012183	-0.480945	0.126540	0.182745	-0.112944	-0.976651	0.354235	-0.919096	0.172570	-0.917127	-0.377500	-0.127951
20037	-9.606130	1.585290	-1.206010	-0.008219	0.004458	0.001298	1.009180	-0.484483	0.125136	0.182762	-0.112916	-0.976651	0.354315	-0.919067	0.172562	-0.917093	-0.377580	-0.127962
20038	-9.630000	1.609360	-1.213580	-0.002863	0.003834	0.003180	1.006172	-0.482284	0.120555	0.182816	-0.112944	-0.976638	0.354287	-0.919069	0.172605	-0.917093	-0.377565	-0.128006
20039	-9.571670	1.631490	-1.252650	-0.004285	0.004267	0.003633	1.013617	-0.474749	0.123800	0.182839	-0.112939	-0.976634	0.354327	-0.919052	0.172615	-0.917073	-0.377608	-0.128022
20040	-9.522330	1.685080	-1.241590	-0.003193	0.004943	0.006876	1.021494	-0.484812	0.123796	0.182841	-0.112975	-0.976630	0.354357	-0.919033	0.172654	-0.917061	-0.377644	-0.128003
20041	-9.577410	1.714760	-1.293930	-0.003233	0.010878	0.011423	1.012482	-0.476799	0.128280	0.182952	-0.113017	-0.976604	0.354373	-0.919011	0.172738	-0.917032	-0.377685	-0.128085
20042	-9.577190	1.745790	-1.277920	-0.000631	0.007437	0.006688	1.016763	-0.486456	0.121882	0.182998	-0.112999	-0.976598	0.354359	-0.919017	0.172737	-0.917029	-0.377676	-0.128136
20043	-9.576910	1.716440	-1.295370	-0.000680	0.005185	0.009665	1.012176	-0.484904	0.124692	0.183051	-0.113046	-0.976582	0.354354	-0.919007	0.172801	-0.917020	-0.377687	-0.128167
20044	-9.618530	1.713040	-1.253540	0.006197	0.008631	0.005141	1.017524	-0.479728	0.122593	0.183134	-0.113100	-0.976560	0.354333	-0.919000	0.172882	-0.917012	-0.377688	-0.128225
20045	-9.642400	1.797400	-1.228050	0.008780	0.008158	0.002680	1.015681	-0.482273	0.126859	0.183190	-0.113072	-0.976553	0.354254	-0.919033	0.172866	-0.917031	-0.377615	-0.128302
20046	-9.618360	1.804050	-1.204730	-0.004565	0.007629	0.004352	1.022166	-0.477039	0.116691	0.183216	-0.113045	-0.976552	0.354310	-0.919013	0.172858	-0.917004	-0.377672	-0.128325
20047	-9.618100	1.744170	-1.239020	-0.005396	0.006559	0.002664	1.016932	-0.477446	0.133383	0.183257	-0.113022	-0.976546	0.354362	-0.918992	0.172860	-0.916976	-0.377729	-0.128361
20048	-9.603040	1.691680	-1.215300	-0.009391	-0.003687	0.001734	1.019083	-0.478611	0.125257	0.183119	-0.112953	-0.976580	0.354473	-0.918969	0.172757	-0.916960	-0.377807	-0.128241
20049	-9.577570	1.678460	-1.261380	-0.003745	0.000512	0.004469	1.022048	-0.482791	0.126984	0.183110	-0.112970	-0.976580	0.354507	-0.918953	0.172774	-0.916949	-0.377841	-0.128221
20050	-9.592470	1.701360	-1.302030	0.000571	0.001464	0.000133	1.021803	-0.475349	0.127574	0.183056	-0.112894	-0.976599	0.354521	-0.918964	0.172684	-0.916954	-0.377836	-0.128199
20051	-9.577500	1.709100	-1.244750	0.003603	0.000917	0.006032	1.014264	-0.478858	0.119132	0.183057	-0.112923	-0.976595	0.354484	-0.918974	0.172706	-0.916968	-0.377803	-0.128195
20052	-9.528120	1.732380	-1.250320	0.001662	0.002139	0.003376	1.020990	-0.483457	0.119366	0.182973	-0.112867	-0.976618	0.354513	-0.918978	0.172626	-0.916974	-0.377810	-0.128135
20053	-9.569750	1.668530	-1.241860	0.001901	0.004711	0.007205	1.014168	-0.481836	0.118024	0.183013	-0.112893	-0.976607	0.354490	-0.918980	0.172661	-0.916975	-0.377797	-0.128166
20054	-9.569580	1.669140	-1.242320	0.004745	0.003844	0.006299	1.012151	-0.482960	0.119908	0.182969	-0.112953	-0.976608	0.354603	-0.918926	0.172717	-0.916940	-0.377910	-0.128081
20055	-9.576970	1.680700	-1.262940	0.007088	0.000798	0.000009	1.011109	-0.487951	0.133670	0.182946	-0.112927	-0.976616	0.354545	-0.918956	0.172676	-0.916967	-0.377845	-0.128082
20056	-9.617320	1.747200	-1.240840	0.005366	0.007559	0.003455	1.015755	-0.477800	0.118474	0.183063	-0.112961	-0.976590	0.354446	-0.918983	0.172739	-0.916982	-0.377770	-0.128194
20057	-9.633560	1.729950	-1.245450	0.005886	0.006771	0.006565	1.011029	-0.478657	0.135064	0.183119	-0.112973	-0.976578	0.354387	-0.919001	0.172764	-0.916993	-0.377723	-0.128251
20058	-9.649870	1.742820	-1.233030	0.000551	0.004430	0.002407	1.020472	-0.483206	0.120424	0.183121	-0.112920	-0.976584	0.354319	-0.919038	0.172705	-0.917019	-0.377648	-0.128285
20059	-9.610890	1.696780	-1.185510	-0.010542	0.004541	0.005311	1.013847	-0.479137	0.118524	0.183152	-0.112929	-0.976577	0.354414	-0.918995	0.172738	-0.916977	-0.377750	-0.128292
20060	-9.634520	1.630830	-1.243700	-0.006298	0.006206	0.006227	1.013221	-0.490922	0.123256	0.183123	-0.112961	-0.976579	0.354604	-0.918913	0.172784	-0.916909	-0.377939	-0.128218
20061	-9.658300	1.655280	-1.251230	0.001609	-0.000114	0.006353	1.015200	-0.477515	0.124657	0.183114	-0.112997	-0.976576	0.354585	-0.918915	0.172812	-0.916918	-0.377924	-0.128200
20062	-9.583590	1.755300	-1.252570	0.005075	0.002734	0.002604	1.016672	-0.478709	0.115726	0.183129	-0.113029	-0.976570	0.354569	-0.918915	0.172846	-0.916921	-0.377915	-0.128203
20063	-9.564050	1.823860	-1.339260	-0.002065	-0.000315	0.005571	1.017985	-0.483306	0.121332	0.183116	-0.113059	-0.976569	0.354585	-0.918904	0.172871	-0.916918	-0.377932	-0.128177
20064	-9.547640	1.841630	-1.335230	-0.005335	-0.002339	-0.004159	1.009282	-0.481189	0.127650	0.182962	-0.113029	-0.976601	0.354799	-0.918833	0.172813	-0.916866	-0.378115	-0.128008
20065	-9.558120	1.742050	-1.298520	-0.007659	-0.002260	-0.000143	1.019103	-0.477661	0.124751	0.182910	-0.113014	-0.976612	0.354877	-0.918807	0.172790	-0.916846	-0.378183	-0.127953
20066	-9.568610	1.672650	-1.245090	-0.010710	0.001254	-0.003769	1.009422	-0.485094	0.127016	0.182866	-0.112929	-0.976630	0.354934	-0.918801	0.172701	-0.916832	-0.378221	-0.127935
20067	-9.586520	1.614660	-1.212180	-0.005687	0.001736	0.001812	1.017376	-0.480469	0.121814	0.182858	-0.112917	-0.976633	0.354991	-0.918781	0.172694	-0.916812	-0.378275	-0.127922
20068	-9.619380	1.639790	-1.186260	-0.002272	0.002331	0.001039	1.011447	-0.488490	0.127639	0.182864	-0.112922	-0.976632	0.355016	-0.918769	0.172705	-0.916801	-0.378301	-0.127921
20069	-9.658230	1.686530	-1.233770	-0.000655	-0.008935	0.003546	1.018711	-0.481363	0.129489	0.182765	-0.112966	-0.976645	0.355023	-0.918766	0.172708	-0.916818	-0.378297	-0.127813
20070	-9.616530	1.781290	-1.224830	0.000766	-0.009369	0.003093	1.008999	-0.481038	0.127644	0.182721	-0.113022	-0.976647	0.354947	-0.918790	0.172733	-0.916856	-0.378220	-0.127766
20071	-9.550840	1.791850	-1.242490	0.003071	-0.006481	0.001351	1.014060	-0.478931	0.132525	0.182637	-0.113036	-0.976661	0.354924	-0.918803	0.172711	-0.916882	-0.378184	-0.127688
20072	-9.567320	1.774250	-1.245750	-0.003706	-0.005420	-0.000080	1.011031	-0.478839	0.124532	0.182603	-0.113007	-0.976671	0.354808	-0.918859	0.172654	-0.916934	-0.378058	-0.127691
20073	-9.576260	1.684930	-1.262650	-0.000831	-0.001069	-0.001688	1.021280	-0.482405	0.126978	0.182558	-0.112972	-0.976683	0.354826	-0.918861	0.172607	-0.916936	-0.378064	-0.127659
20074	-9.594200	1.626800	-1.229650	0.002843	-0.000868	-0.000906	1.006117	-0.480467	0.125858	0.182508	-0.112926	-0.976698	0.354781	-0.918891	0.172537	-0.916963	-0.378003	-0.127641
20075	-9.568790	1.643400	-1.259120	-0.002583	0.000473	0.002461	1.021447	-0.479155	0.121799	0.182491	-0.112924	-0.976701	0.354808	-0.918882	0.172533	-0.916956	-0.378027	-0.127621
20076	-9.583680	1.696480	-1.283030	-0.012743	0.006158	0.001102	1.013009	-0.485900	0.128142	0.182501	-0.112886	-0.976704	0.354922	-0.918841	0.172517	-0.916910	-0.378139	-0.127624
20077	-9.601560	1.698840	-1.217030	-0.018326	0.012399	-0.003038	1.016397	-0.478733	0.124989	0.182574	-0.112788	-0.976701	0.355103	-0.918778	0.172479	-0.916825	-0.378320	-0.127694
20078	-9.632790	1.704010	-1.262150	-0.013594	0.008054	0.001690	1.009745	-0.485692	0.125248	0.182648	-0.112754	-0.976691	0.355181	-0.918747	0.172486	-0.916781	-0.378406	-0.127759
20079	-9.592490	1.758020	-1.217700	-0.006985	0.003709	-0.005962	1.013912	-0.486539	0.120831	0.182631	-0.112663	-0.976705	0.355263	-0.918730	0.172405	-0.916752	-0.378473	-0.127764
20080	-9.576040	1.775660	-1.214150	0.002492	0.003206	0.005066	1.012063	-0.477360	0.123137	0.182690	-0.112756	-0.976683	0.355253	-0.918713	0.172514	-0.916744	-0.378486	-0.127783
20081	-9.550570	1.762120	-1.260550	-0.000240	-0.002571	-0.003830	1.010800	-0.488813	0.125617	0.182623	-0.112708	-0.976701	0.355269	-0.918720	0.172445	-0.916751	-0.378485	-0.127738
20082	-9.567050	1.744170	-1.264300	-0.001941	0.001223	-0.002657	1.016305	-0.475368	0.120288	0.182623	-0.112700	-0.976702	0.355273	-0.918720	0.172438	-0.916750	-0.378487	-0.127740
20083	-9.584990	1.685920	-1.231580	-0.001370	0.002687	-0.002523	1.018669	-0.474119	0.126065	0.182609	-0.112644	-0.976711	0.355297	-0.918721	0.172383	-0.916743	-0.378502	-0.127745
20084	-9.634360	1.692910	-1.209430	0.000332	-0.001107	-0.003697	1.016391	-0.471909	0.121496	0.182469	-0.112522	-0.976752	0.355324	-0.918742	0.172218	-0.916761	-0.378488	-0.127660
20085	-9.617990	1.680080	-1.222280	-0.000239	-0.002571	-0.003830	1.015493	-0.476104	0.127094	0.182402	-0.112474	-0.976770	0.355340	-0.918748	0.172149	-0.916768	-0.378486	-0.127615
20086	-9.585270	1.684650	-1.231110	-0.000738	-0.004747	-0.009215	1.012797	-0.472942	0.125308	0.182222	-0.112312	-0.976822	0.355348	-0.918786	0.171928	-0.916800	-0.378441	-0.127513
20087	-9.627360	1.740390	-1.154440	0.001961	-0.004189	0.000381	1.011296	-0.477530	0.118831	0.182155	-0.112308	-0.976835	0.355337	-0.918797	0.171897	-0.916818	-0.378417	-0.127456
20088	-9.625970	1.750210	-1.207480	0.004897	-0.008735	-0.008052	1.013911	-0.481367	0.127208	0.181959	-0.112222	-0.976881	0.355313	-0.918836	0.171737	-0.916866	-0.378348	-0.127316
20089	-9.585810	1.743460	-1.195890	-0.000240	-0.002571	-0.003830	1.017611	-0.473183	0.126643	0.181892	-0.112174	-0.976899	0.355330	-0.918842	0.171667	-0.916873	-0.378347	-0.127271
20090	-9.609660	1.676670	-1.253580	-0.002252	-0.000635	-0.001235	1.024037	-0.481860	0.120591	0.181840	-0.112097	-0.976918	0.355279	-0.918881	0.171568	-0.916903	-0.378276	-0.127263
20091	-9.611100	1.606090	-1.233730	-0.004785	0.002090	-0.001750	1.021382	-0.486030	0.122314	0.181822	-0.112050	-0.976927	0.355333	-0.918868	0.171524	-0.916886	-0.378321	-0.127256
20092	-9.626090	1.658770	-1.257540	-0.003363	0.001656	-0.002203	1.008536	-0.485934	0.120001	0.181771	-0.112018	-0.976940	0.355490	-0.918812	0.171496	-0.916835	-0.378465	-0.127192
20093	-9.560370	1.699250	-1.259330	0.000291	0.004824	0.000854	1.013063	-0.490926	0.130184	0.181788	-0.111984	-0.976940	0.355493	-0.918816	0.171471	-0.916830	-0.378467	-0.127220
20094	-9.576830	1.711630	-1.246430	-0.003083	-0.001704	-0.002923	1.019323	-0.475456	0.123177	0.181832	-0.112050	-0.976925	0.355492	-0.918802	0.171550	-0.916822	-0.378482	-0.127235
20095	-9.518640	1.763280	-1.268230	-0.001370	0.002687	-0.002523	1.019841	-0.481342	0.126060	0.181818	-0.111993	-0.976934	0.355516	-0.918802	0.171495	-0.916815	-0.378497	-0.127239
20096	-9.569420	1.699820	-1.226310	-0.001941	0.001223	-0.002656	1.018271	-0.476826	0.120659	0.181755	-0.111902	-0.976956	0.355547	-0.918810	0.171388	-0.916816	-0.378504	-0.127212
20097	-9.578290	1.610350	-1.243680	-0.007037	0.001454	-0.002985	1.012503	-0.481761	0.126349	0.181727	-0.111846	-0.976968	0.355624	-0.918790	0.171336	-0.916792	-0.378570	-0.127194
20098	-9.602250	1.664140	-1.234420	-0.002502	0.007944	-0.001214	1.018218	-0.481813	0.124774	0.181751	-0.111782	-0.976970	0.355652	-0.918788	0.171289	-0.916776	-0.378594	-0.127236
20099	-9.635080	1.658780	-1.225790	-0.000800	0.004150	-0.002389	1.017657	-0.481755	0.126268	0.181751	-0.111721	-0.976977	0.355671	-0.918791	0.171234	-0.916769	-0.378605	-0.127255
20100	-9.608200	1.715500	-1.292250	0.001733	0.001425	-0.001874	1.017886	-0.488123	0.125441	0.181741	-0.111678	-0.976984	0.355645	-0.918810	0.171186	-0.916781	-0.378571	-0.127267
20101	-9.608300	1.745280	-1.275470	0.003746	-0.000510	-0.004469	1.012101	-0.476452	0.121910	0.181690	-0.111616	-0.977001	0.355626	-0.918833	0.171105	-0.916798	-0.378535	-0.127249
20102	-9.575650	1.810200	-1.250870	0.009693	-0.002638	-0.004727	1.015729	-0.476252	0.122593	0.181636	-0.111594	-0.977013	0.355551	-0.918871	0.171054	-0.916838	-0.378447	-0.127223
20103	-9.550350	1.796000	-1.296890	0.002626	-0.006403	-0.007012	1.013659	-0.489315	0.122527	0.181523	-0.111531	-0.977042	0.355546	-0.918892	0.170949	-0.916862	-0.378415	-0.127146
20104	-9.586280	1.679250	-1.230600	-0.001900	-0.004709	-0.007207	1.014367	-0.483808	0.124610	0.181440	-0.111509	-0.977059	0.355603	-0.918879	0.170905	-0.916857	-0.378454	-0.127069
20105	-9.562580	1.684990	-1.205940	0.001464	-0.006365	-0.005004	1.015327	-0.475952	0.120267	0.181334	-0.111464	-0.977084	0.355606	-0.918893	0.170822	-0.916876	-0.378433	-0.126989
20106	-9.620900	1.602390	-1.200370	0.000633	-0.007434	-0.006692	1.013638	-0.480888	0.127383	0.181205	-0.111429	-0.977112	0.355629	-0.918899	0.170741	-0.916893	-0.378429	-0.126882
20107	-9.668920	1.619250	-1.230940	0.001744	-0.009726	-0.005724	1.016962	-0.484713	0.121559	0.181065	-0.111390	-0.977143	0.355631	-0.918915	0.170651	-0.916920	-0.378401	-0.126770
20108	-9.637790	1.643980	-1.168840	0.005087	-0.008415	-0.001246	1.018776	-0.479622	0.126127	0.180990	-0.111425	-0.977153	0.355570	-0.918940	0.170646	-0.916958	-0.378331	-0.126700
20109	-9.587150	1.676840	-1.227130	0.009923	-0.008251	-0.002473	1.020944	-0.490217	0.118060	0.180876	-0.111411	-0.977175	0.355490	-0.918983	0.170578	-0.917012	-0.378230	-0.126617
20110	-9.578370	1.705510	-1.243000	0.013597	-0.008048	-0.001691	1.014763	-0.483975	0.125416	0.180782	-0.111451	-0.977188	0.355433	-0.919006	0.170571	-0.917052	-0.378161	-0.126527
20111	-9.578430	1.675140	-1.259280	0.008761	-0.008213	-0.000464	1.023675	-0.475287	0.122925	0.180675	-0.111455	-0.977207	0.355361	-0.919043	0.170523	-0.917101	-0.378071	-0.126442
20112	-9.602340	1.638510	-1.299860	0.015568	-0.004051	0.000263	1.023046	-0.473537	0.124650	0.180602	-0.111437	-0.977223	0.355219	-0.919110	0.170459	-0.917171	-0.377913	-0.126409
20113	-9.618940	1.680750	-1.269790	0.007699	-0.003669	-0.004408	1.017401	-0.479916	0.123816	0.180523	-0.111388	-0.977243	0.355163	-0.919147	0.170374	-0.917208	-0.377837	-0.126367
20114	-9.620570	1.700360	-1.199090	0.005376	-0.003591	-0.000391	1.013100	-0.482939	0.128340	0.180425	-0.111329	-0.977268	0.355112	-0.919186	0.170274	-0.917247	-0.377762	-0.126310
20115	-9.653510	1.725230	-1.172900	0.000000	-0.000000	0.000000	1.018293	-0.479842	0.125360	0.180395	-0.111306	-0.977276	0.355120	-0.919189	0.170242	-0.917250	-0.377761	-0.126290
20116	-9.604180	1.717840	-1.195440	-0.001913	0.006441	-0.003359	1.008550	-0.468872	0.118418	0.180462	-0.111239	-0.977271	0.355071	-0.919215	0.170198	-0.917256	-0.377715	-0.126386
20117	-9.620650	1.729960	-1.182830	-0.001632	0.003079	-0.004078	1.024653	-0.464982	0.126785	0.180446	-0.111167	-0.977282	0.355101	-0.919217	0.170128	-0.917247	-0.377733	-0.126394
20118	-9.595290	1.715850	-1.229340	0.004905	-0.000551	-0.006477	1.019482	-0.473588	0.127613	0.180278	-0.110975	-0.977335	0.355051	-0.919283	0.169875	-0.917300	-0.377629	-0.126324
20119	-9.570110	1.761790	-1.242000	0.007749	-0.001417	-0.007384	1.013122	-0.487194	0.120850	0.180208	-0.110889	-0.977358	0.355000	-0.919324	0.169761	-0.917333	-0.377555	-0.126304
20120	-9.529930	1.754840	-1.230800	0.004926	-0.003518	-0.008750	1.018094	-0.473775	0.126138	0.180136	-0.110819	-0.977379	0.354948	-0.919362	0.169659	-0.917367	-0.377481	-0.126275
20121	-9.562860	1.688380	-1.255010	0.007769	-0.004385	-0.009657	1.021169	-0.475577	0.129255	0.180031	-0.110723	-0.977409	0.354902	-0.919406	0.169523	-0.917406	-0.377403	-0.126226
20122	-9.604840	1.653140	-1.229000	0.002673	-0.004156	-0.009984	1.017759	-0.476291	0.129367	0.179917	-0.110554	-0.977449	0.354816	-0.919478	0.169308	-0.917461	-0.377277	-0.126204
20123	-9.679610	1.612980	-1.193810	0.004856	-0.002803	-0.003500	1.016746	-0.483107	0.119199	0.179849	-0.110509	-0.977467	0.354785	-0.919504	0.169235	-0.917487	-0.377228	-0.126165
20124	-9.679690	1.582270	-1.210230	-0.001050	-0.006612	-0.007788	1.017173	-0.478318	0.117501	0.179748	-0.110454	-0.977492	0.354787	-0.919520	0.169144	-0.917506	-0.377204	-0.126094
20125	-9.629280	1.674970	-1.235190	0.002913	-0.001582	-0.006156	1.018448	-0.475335	0.119644	0.179682	-0.110380	-0.977513	0.354778	-0.919541	0.169047	-0.917522	-0.377175	-0.126064
20126	-9.621900	1.663090	-1.214700	0.002603	-0.003440	-0.004734	1.028501	-0.484386	0.124285	0.179552	-0.110339	-0.977541	0.354855	-0.919526	0.168970	-0.917518	-0.377224	-0.125948
20127	-9.589260	1.697870	-1.206840	-0.007540	-0.000732	-0.008365	1.012386	-0.477309	0.124598	0.179486	-0.110242	-0.977564	0.354946	-0.919510	0.168865	-0.917496	-0.377291	-0.125909
20128	-9.572990	1.714890	-1.202990	0.000378	0.001142	-0.006671	1.016981	-0.483384	0.124270	0.179463	-0.110164	-0.977577	0.354949	-0.919523	0.168784	-0.917499	-0.377281	-0.125917
20129	-9.596770	1.647700	-1.261110	0.000927	0.005573	-0.004266	1.015567	-0.483411	0.113493	0.179469	-0.110081	-0.977585	0.354956	-0.919535	0.168708	-0.917495	-0.377277	-0.125954
20130	-9.638560	1.612920	-1.235740	0.000378	0.001142	-0.006671	1.011599	-0.479935	0.117594	0.179442	-0.110081	-0.977590	0.355039	-0.919502	0.168709	-0.917468	-0.377357	-0.125914
20131	-9.598270	1.606190	-1.224980	-0.001587	0.005329	-0.007054	1.016436	-0.486094	0.127421	0.179436	-0.109973	-0.977604	0.355074	-0.919507	0.168610	-0.917456	-0.377376	-0.125944
20132	-9.581880	1.623510	-1.221690	-0.003078	0.006478	-0.001352	1.017316	-0.476527	0.118998	0.179513	-0.109990	-0.977587	0.355094	-0.919490	0.168659	-0.917433	-0.377412	-0.126004
20133	-9.640140	1.631730	-1.166620	-0.003648	0.005014	-0.001484	1.013101	-0.476273	0.120146	0.179524	-0.109935	-0.977592	0.355137	-0.919481	0.168617	-0.917414	-0.377450	-0.126027
20134	-9.655110	1.654320	-1.207490	0.000570	0.001464	0.000133	1.016139	-0.471188	0.125019	0.179479	-0.109931	-0.977600	0.355170	-0.919471	0.168601	-0.917410	-0.377475	-0.125981
20135	-9.653780	1.694640	-1.243870	0.004782	-0.010272	0.000180	1.025712	-0.470575	0.128620	0.179355	-0.109949	-0.977621	0.355133	-0.919493	0.168564	-0.917449	-0.377419	-0.125869
20136	-9.606080	1.707280	-1.195330	0.005405	0.001630	-0.001094	1.021562	-0.464785	0.120175	0.179298	-0.109813	-0.977647	0.355018	-0.919567	0.168399	-0.917504	-0.377276	-0.125891
20137	-9.597180	1.736050	-1.212260	0.003179	0.006211	-0.003032	1.017159	-0.473320	0.125391	0.179315	-0.109739	-0.977652	0.355001	-0.919586	0.168333	-0.917508	-0.377253	-0.125938
20138	-9.613600	1.718060	-1.216210	0.004548	-0.004659	-0.002077	1.017441	-0.468763	0.121856	0.179159	-0.109632	-0.977693	0.354961	-0.919632	0.168166	-0.917554	-0.377171	-0.125845
20139	-9.555460	1.739440	-1.254970	0.001518	0.004070	-0.006406	1.018606	-0.488145	0.119594	0.179143	-0.109534	-0.977707	0.354965	-0.919648	0.168069	-0.917555	-0.377160	-0.125868
20140	-9.571910	1.721080	-1.259180	-0.005261	0.005123	-0.007835	1.024734	-0.474475	0.131360	0.179124	-0.109448	-0.977720	0.355069	-0.919621	0.167995	-0.917519	-0.377250	-0.125864
20141	-9.622580	1.657130	-1.217460	-0.009787	0.006814	-0.008030	1.014013	-0.480070	0.119102	0.179127	-0.109325	-0.977733	0.355181	-0.919596	0.167896	-0.917475	-0.377346	-0.125895
20142	-9.607530	1.603630	-1.194310	-0.009479	0.008671	-0.009452	1.022331	-0.475787	0.126729	0.179157	-0.109173	-0.977744	0.355246	-0.919594	0.167773	-0.917444	-0.377397	-0.125968
20143	-9.583650	1.609450	-1.170980	-0.007558	0.010419	-0.004522	1.015152	-0.473288	0.122293	0.179206	-0.109069	-0.977747	0.355330	-0.919573	0.167706	-0.917402	-0.377477	-0.126038
20144	-9.591100	1.620480	-1.192090	-0.010971	0.009819	-0.003749	1.021106	-0.476116	0.122457	0.179243	-0.108948	-0.977754	0.355405	-0.919561	0.167617	-0.917365	-0.377543	-0.126104
20145	-9.638890	1.637750	-1.224080	-0.006493	0.005877	-0.000578	1.017367	-0.474706	0.123199	0.179265	-0.108897	-0.977755	0.355472	-0.919540	0.167587	-0.917335	-0.377608	-0.126131
20146	-9.671900	1.662440	-1.197980	-0.001376	-0.005502	-0.004094	1.013248	-0.481052	0.126007	0.179153	-0.108847	-0.977782	0.355499	-0.919546	0.167500	-0.917347	-0.377608	-0.126044
20147	-9.639180	1.667270	-1.206680	0.002037	-0.004902	-0.004867	1.011308	-0.477668	0.123565	0.179060	-0.108797	-0.977804	0.355496	-0.919562	0.167417	-0.917366	-0.377583	-0.125980
20148	-9.621610	1.724740	-1.239040	0.008838	-0.008921	-0.005710	1.019085	-0.473005	0.121625	0.178987	-0.108810	-0.977816	0.355341	-0.919629	0.167379	-0.917440	-0.377417	-0.125937
20149	-9.614440	1.742800	-1.201270	0.010569	-0.007496	-0.007584	1.020967	-0.479243	0.126726	0.178861	-0.108745	-0.977846	0.355264	-0.919680	0.167259	-0.917494	-0.377310	-0.125862
20150	-9.598180	1.729520	-1.213660	0.004903	-0.008735	-0.008045	1.015557	-0.478919	0.121981	0.178722	-0.108669	-0.977880	0.355216	-0.919723	0.167128	-0.917540	-0.377228	-0.125774
20151	-9.598270	1.698520	-1.230080	0.005497	-0.002052	-0.008615	1.025181	-0.478444	0.119919	0.178643	-0.108574	-0.977905	0.355188	-0.919756	0.167004	-0.917566	-0.377174	-0.125744
20152	-9.574340	1.643620	-1.239630	0.000448	0.000424	-0.011918	1.016626	-0.475437	0.123178	0.178572	-0.108471	-0.977930	0.355248	-0.919754	0.166887	-0.917557	-0.377209	-0.125708
20153	-9.583340	1.613670	-1.223340	-0.000736	0.003431	-0.007638	1.016982	-0.480183	0.123819	0.178546	-0.108364	-0.977946	0.355275	-0.919763	0.166781	-0.917552	-0.377218	-0.125721
20154	-9.599910	1.625390	-1.210560	-0.002727	0.002398	-0.007318	1.014219	-0.476503	0.128285	0.178539	-0.108295	-0.977955	0.355280	-0.919773	0.166713	-0.917551	-0.377213	-0.125740
20155	-9.640500	1.660890	-1.204870	-0.000191	-0.000324	-0.006802	1.015168	-0.473727	0.122219	0.178482	-0.108210	-0.977975	0.355301	-0.919783	0.166614	-0.917554	-0.377213	-0.125717
20156	-9.599100	1.724500	-1.213580	0.004667	-0.003123	-0.010301	1.024380	-0.480478	0.117801	0.178416	-0.108112	-0.977998	0.355194	-0.919849	0.166482	-0.917608	-0.377082	-0.125715
20157	-9.566280	1.698750	-1.239570	0.003222	0.000277	-0.007575	1.019582	-0.480420	0.131056	0.178362	-0.108018	-0.978018	0.355184	-0.919872	0.166371	-0.917623	-0.377051	-0.125704
20158	-9.585580	1.629680	-1.153070	0.006066	-0.000587	-0.008481	1.011314	-0.478004	0.118661	0.178334	-0.107949	-0.978031	0.355129	-0.919908	0.166288	-0.917649	-0.376982	-0.125715
20159	-9.617100	1.633590	-1.197670	0.008363	0.002304	-0.010222	1.023070	-0.478764	0.123945	0.178289	-0.107823	-0.978053	0.355077	-0.919954	0.166145	-0.917678	-0.376906	-0.125732
20160	-9.585680	1.597600	-1.170570	0.019646	0.002535	-0.006325	1.022241	-0.479343	0.121411	0.178277	-0.107786	-0.978059	0.354910	-0.920030	0.166082	-0.917745	-0.376732	-0.125766
20161	-9.632480	1.684410	-1.222390	0.020238	0.001031	-0.008463	1.026783	-0.477995	0.128029	0.178227	-0.107681	-0.978080	0.354746	-0.920119	0.165942	-0.917818	-0.376545	-0.125790
20162	-9.672820	1.659280	-1.250690	0.015403	0.000861	-0.007237	1.019954	-0.476440	0.126885	0.178198	-0.107592	-0.978095	0.354622	-0.920187	0.165830	-0.917872	-0.376404	-0.125821
20163	-9.649110	1.664680	-1.226810	0.005543	0.000195	-0.011587	1.020017	-0.483979	0.115002	0.178129	-0.107462	-0.978122	0.354598	-0.920223	0.165678	-0.917895	-0.376352	-0.125813
20164	-9.543020	1.638030	-1.251470	-0.001240	0.009430	-0.011452	1.019738	-0.477324	0.127275	0.178164	-0.107364	-0.978126	0.354658	-0.920213	0.165607	-0.917865	-0.376405	-0.125871
20165	-9.568420	1.620280	-1.222940	-0.000933	0.011286	-0.012873	1.019476	-0.473510	0.130844	0.178192	-0.107180	-0.978141	0.354696	-0.920227	0.165450	-0.917844	-0.376425	-0.125961
20166	-9.641560	1.589570	-1.242600	0.001604	0.008566	-0.012355	1.020941	-0.476493	0.122867	0.178249	-0.106990	-0.978152	0.354611	-0.920289	0.165282	-0.917866	-0.376325	-0.126101
20167	-9.625320	1.606230	-1.239390	0.000423	0.003387	-0.009644	1.018742	-0.470810	0.119538	0.178216	-0.106866	-0.978171	0.354631	-0.920305	0.165155	-0.917865	-0.376323	-0.126115
20168	-9.618020	1.624370	-1.202840	0.004900	0.007638	-0.004904	1.021135	-0.473908	0.122773	0.178216	-0.106779	-0.978181	0.354623	-0.920323	0.165072	-0.917868	-0.376304	-0.126150
20169	-9.634580	1.636090	-1.190370	0.002106	0.002563	-0.008542	1.019758	-0.475452	0.127060	0.178179	-0.106667	-0.978199	0.354625	-0.920343	0.164954	-0.917874	-0.376285	-0.126159
20170	-9.592830	1.639430	-1.233270	0.007770	0.003806	-0.008079	1.024638	-0.479424	0.124793	0.178168	-0.106555	-0.978214	0.354546	-0.920395	0.164832	-0.917907	-0.376189	-0.126207
20171	-9.584130	1.667450	-1.250190	-0.006617	0.004822	-0.012630	1.017039	-0.476712	0.118608	0.178138	-0.106397	-0.978236	0.354635	-0.920387	0.164685	-0.917878	-0.376254	-0.126224
20172	-9.617310	1.691270	-1.224380	-0.010336	0.002362	-0.010436	1.016983	-0.474398	0.118465	0.178104	-0.106321	-0.978251	0.354771	-0.920347	0.164619	-0.917833	-0.376374	-0.126198
20173	-9.640920	1.623630	-1.282270	-0.009769	0.003827	-0.010303	1.015574	-0.474334	0.122451	0.178073	-0.106189	-0.978271	0.354885	-0.920324	0.164498	-0.917794	-0.376466	-0.126201
20174	-9.585640	1.594140	-1.230880	-0.011147	0.006507	-0.012826	1.016110	-0.466891	0.122274	0.178053	-0.106070	-0.978287	0.355017	-0.920292	0.164397	-0.917748	-0.376580	-0.126204
20175	-9.612590	1.566130	-1.148330	0.003879	0.006239	-0.013388	1.017742	-0.472093	0.127390	0.178033	-0.105901	-0.978309	0.355011	-0.920324	0.164229	-0.917753	-0.376549	-0.126252
20176	-9.587370	1.581600	-1.178490	-0.000127	0.007139	-0.010478	1.024194	-0.473997	0.121707	0.178027	-0.105730	-0.978329	0.354985	-0.920364	0.164062	-0.917765	-0.376500	-0.126317
20177	-9.637010	1.617920	-1.140150	0.005491	0.006136	-0.007040	1.019083	-0.479159	0.119470	0.178029	-0.105619	-0.978341	0.354954	-0.920395	0.163954	-0.917776	-0.376454	-0.126367
20178	-9.660850	1.610870	-1.165040	0.010254	0.007028	-0.003017	1.017957	-0.463368	0.118347	0.178048	-0.105591	-0.978340	0.354905	-0.920418	0.163928	-0.917792	-0.376405	-0.126404
20179	-9.668130	1.591610	-1.202950	0.008264	0.005994	-0.002697	1.020073	-0.479093	0.124807	0.178064	-0.105521	-0.978345	0.354840	-0.920456	0.163860	-0.917814	-0.376334	-0.126457
20180	-9.659280	1.620370	-1.220170	0.012198	0.005814	-0.000360	1.014782	-0.474097	0.125253	0.178061	-0.105480	-0.978350	0.354742	-0.920503	0.163807	-0.917852	-0.376229	-0.126488
20181	-9.651500	1.578710	-1.217380	0.018149	0.003698	-0.000612	1.021496	-0.473919	0.122998	0.178063	-0.105438	-0.978354	0.354583	-0.920575	0.163746	-0.917913	-0.376064	-0.126534
20182	-9.537910	1.571800	-1.204970	0.025828	0.003008	-0.002737	1.022570	-0.474711	0.126845	0.178069	-0.105403	-0.978357	0.354324	-0.920686	0.163680	-0.918012	-0.375802	-0.126599
20183	-9.512930	1.648340	-1.201930	0.041058	0.008289	0.002803	1.022331	-0.469847	0.124141	0.178126	-0.105375	-0.978349	0.353948	-0.920841	0.163623	-0.918146	-0.375431	-0.126729
20184	-9.593350	1.629630	-1.242210	0.045046	0.002167	0.000605	1.020003	-0.473818	0.124400	0.178118	-0.105333	-0.978355	0.353526	-0.921021	0.163523	-0.918310	-0.375000	-0.126812
20185	-9.593290	1.629130	-1.243300	0.046177	0.005094	0.000873	1.016660	-0.475726	0.119111	0.178138	-0.105299	-0.978355	0.353106	-0.921197	0.163441	-0.918468	-0.374578	-0.126918
20186	-9.626010	1.623580	-1.235440	0.041574	0.007501	0.005919	1.018509	-0.470336	0.118429	0.178197	-0.105355	-0.978338	0.352728	-0.921338	0.163464	-0.918602	-0.374216	-0.127018
20187	-9.650960	1.576790	-1.224140	0.035101	0.010397	0.003060	1.013788	-0.470809	0.131053	0.178274	-0.105322	-0.978328	0.352406	-0.921469	0.163417	-0.918710	-0.373901	-0.127158
20188	-9.651800	1.506450	-1.205890	0.028833	0.018846	0.006289	1.012329	-0.472266	0.127259	0.178438	-0.105295	-0.978301	0.352099	-0.921587	0.163412	-0.918796	-0.373618	-0.127372
20189	-9.611330	1.531090	-1.180220	0.029093	0.018454	0.007846	1.012658	-0.473305	0.126711	0.178606	-0.105276	-0.978272	0.351824	-0.921691	0.163420	-0.918869	-0.373367	-0.127581
20190	-9.529190	1.589850	-1.180540	0.047830	0.020632	0.005113	1.021908	-0.469667	0.120975	0.178824	-0.105259	-0.978234	0.351297	-0.921893	0.163415	-0.919028	-0.372873	-0.127879
20191	-9.487380	1.654350	-1.192270	0.051192	0.018986	0.007329	1.022836	-0.479435	0.128858	0.178995	-0.105233	-0.978206	0.350819	-0.922079	0.163389	-0.919177	-0.372419	-0.128130
20192	-9.584450	1.708800	-1.188210	0.060845	0.027503	0.006455	1.023853	-0.472224	0.124588	0.179233	-0.105191	-0.978167	0.350274	-0.922291	0.163365	-0.919339	-0.371907	-0.128459
20193	-9.690080	1.704190	-1.184630	0.057383	0.024657	0.010210	1.017156	-0.476327	0.124912	0.179466	-0.105171	-0.978126	0.349734	-0.922497	0.163359	-0.919499	-0.371401	-0.128775
20194	-9.665730	1.680330	-1.180140	0.047070	0.018804	-0.001795	1.016321	-0.467961	0.127750	0.179591	-0.105099	-0.978111	0.349331	-0.922663	0.163281	-0.919628	-0.371008	-0.128988
20195	-9.623590	1.683540	-1.225140	0.043398	0.018591	-0.002581	1.020497	-0.482063	0.137028	0.179724	-0.104983	-0.978099	0.348942	-0.922830	0.163169	-0.919749	-0.370625	-0.129221
20196	-9.649090	1.696500	-1.181320	0.046529	0.014358	-0.004178	1.014281	-0.476012	0.125765	0.179868	-0.104882	-0.978083	0.348457	-0.923033	0.163060	-0.919905	-0.370149	-0.129478
20197	-9.629500	1.732550	-1.286850	0.064140	0.005401	-0.008688	1.019750	-0.471378	0.131815	0.179859	-0.104759	-0.978098	0.347888	-0.923282	0.162860	-0.920122	-0.369561	-0.129616
20198	-9.602890	1.786950	-1.354860	0.058588	0.000439	-0.016660	1.017903	-0.473411	0.120899	0.179794	-0.104618	-0.978125	0.347351	-0.923526	0.162626	-0.920338	-0.368992	-0.129706
20199	-9.587870	1.923200	-1.286370	0.045412	0.011820	-0.024696	1.029137	-0.467146	0.128357	0.179789	-0.104323	-0.978158	0.346984	-0.923722	0.162294	-0.920477	-0.368583	-0.129876
20200	-9.603670	1.811780	-1.341850	0.032351	0.016109	-0.022233	1.019819	-0.466826	0.129515	0.179768	-0.104047	-0.978191	0.346793	-0.923846	0.161999	-0.920553	-0.368352	-0.129995
20201	-9.613290	1.680150	-1.324360	0.023204	0.041818	-0.015078	1.022513	-0.464168	0.134369	0.180071	-0.103731	-0.978169	0.346612	-0.923950	0.161790	-0.920562	-0.368179	-0.130423
20202	-9.647990	1.532600	-1.279070	0.023200	0.055216	-0.014262	1.022262	-0.467833	0.133475	0.180474	-0.103319	-0.978138	0.346404	-0.924075	0.161523	-0.920561	-0.367982	-0.130982
20203	-9.599970	1.353000	-1.281640	0.013259	0.050060	-0.012675	1.019420	-0.467767	0.122636	0.180862	-0.102995	-0.978101	0.346311	-0.924140	0.161350	-0.920520	-0.367909	-0.131474
20204	-9.575800	1.358390	-1.262240	0.016910	0.045057	-0.011150	1.018027	-0.471370	0.130122	0.181161	-0.102705	-0.978076	0.346208	-0.924209	0.161174	-0.920500	-0.367816	-0.131874
20205	-9.600840	1.341010	-1.236970	0.029528	0.037430	-0.003936	1.021365	-0.472093	0.138888	0.181463	-0.102508	-0.978041	0.345950	-0.924325	0.161065	-0.920538	-0.367580	-0.132268
20206	-9.655570	1.368390	-1.293140	0.029734	0.034811	0.000607	1.025646	-0.475976	0.129510	0.181786	-0.102375	-0.977995	0.345640	-0.924449	0.161016	-0.920590	-0.367305	-0.132667
20207	-9.687600	1.333130	-1.304250	0.035714	0.031567	0.015416	1.021680	-0.466376	0.135691	0.182101	-0.102378	-0.977936	0.345289	-0.924568	0.161088	-0.920660	-0.367005	-0.133014
20208	-9.666260	1.260990	-1.209100	0.048172	0.028786	0.015118	1.028627	-0.469522	0.136580	0.182376	-0.102396	-0.977882	0.344842	-0.924725	0.161143	-0.920773	-0.366604	-0.133337
20209	-9.617550	1.215090	-1.197880	0.074599	0.042511	0.026203	1.021890	-0.463079	0.131336	0.182829	-0.102460	-0.977791	0.344114	-0.924975	0.161268	-0.920956	-0.365956	-0.133854
20210	-9.552590	1.218030	-1.168220	0.105556	0.059746	0.036807	1.019050	-0.463504	0.136735	0.183424	-0.102511	-0.977674	0.343104	-0.925328	0.161393	-0.921214	-0.365048	-0.134556
20211	-9.502440	1.274060	-1.164590	0.120949	0.067607	0.046250	1.012840	-0.474244	0.137788	0.184177	-0.102670	-0.977516	0.341911	-0.925724	0.161651	-0.921507	-0.363996	-0.135393
20212	-9.419320	1.366500	-1.155410	0.125004	0.094573	0.057032	1.021459	-0.473265	0.138733	0.185219	-0.102833	-0.977302	0.340614	-0.926141	0.162003	-0.921779	-0.362889	-0.136512
20213	-9.431210	1.332240	-1.240740	0.109196	0.116483	0.070193	1.013580	-0.470349	0.141174	0.186502	-0.103038	-0.977036	0.339483	-0.926468	0.162508	-0.921937	-0.361995	-0.137809
20214	-9.490210	1.176710	-1.172780	0.091706	0.125825	0.081440	1.016846	-0.472897	0.129038	0.187918	-0.103327	-0.976735	0.338465	-0.926726	0.163155	-0.922024	-0.361250	-0.139176
20215	-9.545040	1.041100	-1.213340	0.107801	0.140701	0.097142	1.009503	-0.474541	0.144245	0.189514	-0.103696	-0.976387	0.337294	-0.927018	0.163921	-0.922126	-0.360395	-0.140707
20216	-9.673020	1.160450	-1.182440	0.161162	0.158278	0.115942	1.012391	-0.475208	0.149986	0.191305	-0.104246	-0.975979	0.335622	-0.927460	0.164850	-0.922367	-0.359097	-0.142440
20217	-9.803900	1.409020	-1.430600	0.192509	0.139635	0.126863	1.011871	-0.476566	0.150335	0.192988	-0.104900	-0.975578	0.333609	-0.928020	0.165781	-0.922746	-0.357455	-0.144102
20218	-9.833910	1.757860	-1.313910	0.196919	0.123289	0.114451	1.013601	-0.474731	0.152161	0.194520	-0.105515	-0.975207	0.331511	-0.928625	0.166600	-0.923180	-0.355699	-0.145657
20219	-9.711450	1.999950	-1.362090	0.196442	0.097593	0.116762	1.008452	-0.482399	0.155578	0.195779	-0.106230	-0.974877	0.329476	-0.929202	0.167420	-0.923643	-0.353976	-0.146918
20220	-9.746140	2.280430	-1.706560	0.162456	0.038960	0.107744	1.020542	-0.471597	0.151759	0.196506	-0.107097	-0.974636	0.327715	-0.929678	0.168231	-0.924115	-0.352461	-0.147590
20221	-9.618750	2.248970	-1.602960	0.137396	0.035448	0.065929	1.013699	-0.475177	0.160235	0.197021	-0.107562	-0.974481	0.326322	-0.930094	0.168639	-0.924498	-0.351220	-0.148148
20222	-9.430050	2.182710	-1.622590	0.106468	0.041707	0.047572	1.014852	-0.479957	0.156439	0.197498	-0.107781	-0.974360	0.325234	-0.930438	0.168846	-0.924780	-0.350241	-0.148705
20223	-9.500860	1.936700	-1.560830	0.065837	0.044977	0.056371	1.007823	-0.478656	0.160210	0.198069	-0.108125	-0.974206	0.324520	-0.930611	0.169265	-0.924909	-0.349675	-0.149236
20224	-9.650580	1.706070	-1.378560	0.104414	0.043645	0.050173	1.012921	-0.479805	0.153301	0.198633	-0.108425	-0.974058	0.323414	-0.930939	0.169577	-0.925175	-0.348707	-0.149849
20225	-9.510050	1.747360	-1.383110	0.139741	0.046128	0.038715	1.012268	-0.476591	0.156001	0.199156	-0.108602	-0.973931	0.322050	-0.931387	0.169712	-0.925538	-0.347454	-0.150516
20226	-9.443210	1.881190	-1.344390	0.139767	0.051293	0.037986	1.015664	-0.482083	0.152551	0.199688	-0.108771	-0.973804	0.320709	-0.931825	0.169847	-0.925889	-0.346224	-0.151191
20227	-9.503390	2.043790	-1.363370	0.115798	0.052146	0.035503	1.006790	-0.482374	0.160782	0.200257	-0.108898	-0.973673	0.319572	-0.932190	0.169986	-0.926159	-0.345199	-0.151876
20228	-9.522610	2.015620	-1.464050	0.096223	0.042663	0.025028	1.003445	-0.473559	0.149458	0.200695	-0.109013	-0.973570	0.318665	-0.932479	0.170103	-0.926377	-0.344381	-0.152406
20229	-9.596840	1.886590	-1.482180	0.071592	0.041644	0.015567	1.010325	-0.487924	0.160600	0.201103	-0.108991	-0.973488	0.317977	-0.932712	0.170114	-0.926525	-0.343757	-0.152914
20230	-9.602390	1.805210	-1.555230	0.059822	0.039995	0.011348	1.005814	-0.478265	0.152243	0.201452	-0.109008	-0.973414	0.317447	-0.932883	0.170166	-0.926631	-0.343287	-0.153327
20231	-9.461930	1.781880	-1.590420	0.050336	0.062300	0.000682	1.008003	-0.471738	0.164317	0.202003	-0.108777	-0.973325	0.316986	-0.933059	0.170064	-0.926669	-0.342884	-0.154000
20232	-9.443260	1.772230	-1.465130	0.055360	0.065023	0.003356	1.014285	-0.481706	0.165477	0.202532	-0.108581	-0.973237	0.316469	-0.933250	0.169978	-0.926730	-0.342426	-0.154650
20233	-9.447640	1.694090	-1.395910	0.039100	0.073289	0.000262	1.009725	-0.478032	0.163251	0.203183	-0.108310	-0.973132	0.316113	-0.933387	0.169888	-0.926709	-0.342138	-0.155410
20234	-9.491840	1.591300	-1.355010	0.021325	0.079821	0.000593	1.002199	-0.482855	0.158229	0.203889	-0.108032	-0.973015	0.315921	-0.933460	0.169840	-0.926619	-0.342024	-0.156192
20235	-9.604810	1.410280	-1.274810	0.033265	0.084089	0.008659	1.010961	-0.480862	0.169800	0.204667	-0.107803	-0.972877	0.315601	-0.933568	0.169841	-0.926557	-0.341802	-0.157048
20236	-9.728550	1.259030	-1.289840	0.081059	0.058982	0.021620	1.020130	-0.485668	0.163194	0.205267	-0.107836	-0.972747	0.314828	-0.933809	0.169953	-0.926687	-0.341134	-0.157731
20237	-9.752460	1.402380	-1.387250	0.133683	0.043878	0.025109	1.016948	-0.489196	0.167634	0.205724	-0.107898	-0.972644	0.313544	-0.934241	0.169955	-0.927021	-0.339930	-0.158365
20238	-9.624540	1.650910	-1.537700	0.145780	0.034393	0.034134	1.008996	-0.486086	0.169237	0.206120	-0.108125	-0.972534	0.312241	-0.934652	0.170091	-0.927373	-0.338724	-0.158890
20239	-9.465410	1.803780	-1.690320	0.122089	0.059486	0.037400	1.008051	-0.485038	0.169780	0.206760	-0.108251	-0.972385	0.311038	-0.935028	0.170229	-0.927634	-0.337645	-0.159656
20240	-9.441310	1.935940	-1.612230	0.109249	0.068289	0.033550	1.003925	-0.480962	0.177919	0.207511	-0.108367	-0.972212	0.310009	-0.935334	0.170425	-0.927811	-0.336760	-0.160498
20241	-9.376870	1.963910	-1.712550	0.096558	0.068079	0.023013	1.010786	-0.479136	0.173623	0.208186	-0.108330	-0.972072	0.309072	-0.935637	0.170463	-0.927972	-0.335929	-0.161305
20242	-9.475270	2.012870	-1.664700	0.061521	0.073997	0.015380	1.012610	-0.482801	0.171617	0.208920	-0.108207	-0.971928	0.308432	-0.935844	0.170488	-0.928021	-0.335392	-0.162142
20243	-9.626830	2.032190	-1.557330	0.028319	0.065377	0.009828	1.014228	-0.476945	0.170805	0.209529	-0.108057	-0.971813	0.308155	-0.935931	0.170507	-0.927975	-0.335196	-0.162806
20244	-9.661390	1.896650	-1.562350	0.003470	0.051367	-0.002001	1.013876	-0.476906	0.179159	0.209918	-0.107860	-0.971751	0.308171	-0.935936	0.170456	-0.927882	-0.335248	-0.163230
20245	-9.593900	1.874130	-1.600170	-0.012028	0.068459	-0.008915	1.006097	-0.478374	0.176353	0.210497	-0.107524	-0.971663	0.308309	-0.935908	0.170358	-0.927705	-0.335432	-0.163856
20246	-9.582710	1.814480	-1.525460	-0.045947	0.067408	-0.007957	1.008603	-0.485194	0.177272	0.211054	-0.107191	-0.971579	0.308708	-0.935787	0.170302	-0.927446	-0.335877	-0.164411
20247	-9.424810	1.715850	-1.600820	-0.064565	0.059507	-0.010063	1.010722	-0.477976	0.169745	0.211546	-0.106874	-0.971507	0.309335	-0.935584	0.170280	-0.927125	-0.336543	-0.164860
20248	-9.436250	1.644340	-1.694730	-0.104426	0.089894	-0.012355	1.011922	-0.476262	0.185265	0.212296	-0.106468	-0.971388	0.310384	-0.935225	0.170338	-0.926603	-0.337665	-0.165498
20249	-9.667510	1.557130	-1.530120	-0.130401	0.092800	-0.012535	1.009588	-0.474436	0.173755	0.213088	-0.106014	-0.971264	0.311626	-0.934801	0.170402	-0.926004	-0.338982	-0.166158
20250	-9.661140	1.355260	-1.555040	-0.126996	0.092060	0.003464	1.010844	-0.483699	0.172478	0.213883	-0.105689	-0.971125	0.312718	-0.934406	0.170566	-0.925452	-0.340170	-0.166802
20251	-9.539740	1.309080	-1.539270	-0.123087	0.092308	0.012771	1.009596	-0.482956	0.173990	0.214748	-0.105471	-0.970958	0.313836	-0.933976	0.170865	-0.924873	-0.341415	-0.167469
20252	-9.501860	1.298890	-1.479760	-0.136209	0.095009	0.024766	1.013161	-0.473631	0.174886	0.215656	-0.105396	-0.970765	0.315138	-0.933449	0.171353	-0.924219	-0.342878	-0.168089
20253	-9.469810	1.150540	-1.375780	-0.142120	0.113958	0.034637	1.012351	-0.482618	0.180569	0.216790	-0.105305	-0.970522	0.316383	-0.932927	0.171898	-0.923528	-0.344323	-0.168932
20254	-9.581330	1.017940	-1.194450	-0.105795	0.156131	0.044042	1.006305	-0.487055	0.185822	0.218277	-0.105147	-0.970206	0.317239	-0.932537	0.172437	-0.922884	-0.345426	-0.170195
20255	-9.600190	1.090570	-1.112860	-0.044484	0.182172	0.063415	1.008959	-0.483168	0.182636	0.220130	-0.105086	-0.969794	0.317517	-0.932320	0.173097	-0.922348	-0.346030	-0.171865
20256	-9.565650	1.059590	-1.244940	0.044416	0.191520	0.090399	1.018440	-0.483807	0.174652	0.222193	-0.105248	-0.969306	0.316905	-0.932382	0.173882	-0.922064	-0.345813	-0.173815
20257	-9.521340	1.316140	-1.180130	0.098126	0.204154	0.105869	1.012514	-0.485043	0.191051	0.224382	-0.105507	-0.968773	0.315771	-0.932613	0.174706	-0.921923	-0.345111	-0.175945
20258	-9.495810	1.681810	-1.368000	0.135015	0.202959	0.129480	1.007329	-0.488412	0.185578	0.226561	-0.105990	-0.968213	0.314273	-0.932938	0.175669	-0.921901	-0.344083	-0.178058
20259	-9.492290	1.755920	-1.667950	0.098506	0.204612	0.129694	1.003834	-0.482010	0.186283	0.228826	-0.106475	-0.967627	0.313077	-0.933142	0.176717	-0.921749	-0.343380	-0.180192
20260	-9.493810	1.734320	-1.815960	0.035619	0.210026	0.126309	1.001640	-0.492098	0.194305	0.231074	-0.106929	-0.967042	0.312497	-0.933121	0.177849	-0.921385	-0.343294	-0.182204
20261	-9.484890	1.499530	-1.960800	0.022796	0.211544	0.134612	1.010223	-0.494594	0.191248	0.233414	-0.107437	-0.966424	0.311982	-0.933059	0.179079	-0.920970	-0.343306	-0.184270
20262	-9.382480	1.151490	-1.992710	0.036204	0.223000	0.145665	1.000058	-0.492664	0.196581	0.235899	-0.108026	-0.965755	0.311420	-0.932986	0.180429	-0.920527	-0.343319	-0.186449
20263	-9.405870	1.000340	-1.919640	0.090156	0.237189	0.160155	1.003465	-0.493979	0.203082	0.238551	-0.108684	-0.965029	0.310218	-0.933125	0.181776	-0.920249	-0.342732	-0.188882
20264	-9.472190	1.060100	-1.843270	0.156688	0.229553	0.184895	0.999167	-0.492266	0.213460	0.241211	-0.109607	-0.964263	0.308374	-0.933449	0.183244	-0.920175	-0.341555	-0.191358
20265	-9.503800	1.120440	-1.609170	0.180821	0.225971	0.209589	0.999780	-0.503235	0.203229	0.243906	-0.110771	-0.963452	0.306210	-0.933838	0.184886	-0.920188	-0.340113	-0.193849
20266	-9.548870	1.283880	-1.462270	0.198678	0.224404	0.217517	1.001513	-0.498455	0.212264	0.246637	-0.112014	-0.962613	0.303887	-0.934260	0.186575	-0.920230	-0.338542	-0.196383
20267	-9.499940	1.537480	-1.493580	0.225593	0.211223	0.233255	0.994635	-0.500755	0.214634	0.249258	-0.113458	-0.961768	0.301241	-0.934762	0.188344	-0.920394	-0.336670	-0.198819
20268	-9.343800	1.912170	-1.299140	0.216185	0.215902	0.244814	1.000993	-0.507582	0.216332	0.251945	-0.114994	-0.960885	0.298657	-0.935209	0.190230	-0.920504	-0.334903	-0.201278
20269	-9.069110	2.214460	-0.838086	0.185345	0.240302	0.239130	0.997597	-0.506955	0.228353	0.254841	-0.116405	-0.959951	0.296353	-0.935556	0.192121	-0.920451	-0.333445	-0.203920
20270	-8.956490	2.669470	-0.654566	0.203245	0.289938	0.243010	0.990133	-0.509854	0.226232	0.258218	-0.117678	-0.958893	0.293920	-0.935933	0.194009	-0.920290	-0.331935	-0.207087
20271	-9.806940	3.080970	-1.140720	0.421723	0.208054	0.269647	0.994756	-0.514772	0.223768	0.260892	-0.119494	-0.957944	0.289346	-0.937009	0.195685	-0.920985	-0.328230	-0.209883
20272	-10.898300	2.339480	-1.889580	0.707998	-0.065296	0.313203	0.995719	-0.513379	0.239148	0.261181	-0.122626	-0.957469	0.282162	-0.938878	0.197214	-0.923130	-0.321670	-0.210616
20273	-9.685800	1.736720	-4.727610	0.387754	-0.089744	0.204285	0.997855	-0.516799	0.229245	0.260896	-0.124809	-0.957265	0.278055	-0.939869	0.198323	-0.924456	-0.317915	-0.210505
20274	-9.133990	2.718420	-4.547840	0.098764	0.050292	0.091671	0.981301	-0.511846	0.228305	0.261590	-0.125473	-0.956988	0.277007	-0.940041	0.198970	-0.924574	-0.317141	-0.211149
20275	-8.885330	3.765280	-4.541390	-0.045465	0.034616	0.067477	0.993492	-0.514181	0.230968	0.262070	-0.125975	-0.956791	0.277259	-0.939816	0.199682	-0.924363	-0.317610	-0.211370
20276	-8.575960	3.789690	-3.476370	-0.187657	0.048821	0.012636	0.994710	-0.505204	0.231173	0.262520	-0.125919	-0.956675	0.279095	-0.939162	0.200200	-0.923682	-0.319560	-0.211405
20277	-8.848070	2.911660	-2.521970	-0.230001	0.062220	-0.047238	0.992210	-0.517191	0.234528	0.262934	-0.125253	-0.956649	0.281352	-0.938488	0.200204	-0.922880	-0.321796	-0.211521
20278	-9.576580	2.825110	-1.884980	-0.156523	0.069087	-0.047282	0.988666	-0.525041	0.232097	0.263348	-0.124565	-0.956625	0.282896	-0.938062	0.200026	-0.922289	-0.323301	-0.211798
20279	-9.555760	3.293710	-1.309530	-0.120340	0.072005	-0.057394	0.992924	-0.522008	0.225425	0.263822	-0.123771	-0.956598	0.284165	-0.937747	0.199702	-0.921764	-0.324517	-0.212227
20280	-9.212860	3.793580	-1.212350	-0.111915	0.070596	-0.096412	0.992939	-0.508581	0.227713	0.264274	-0.122586	-0.956625	0.285873	-0.937358	0.199091	-0.921106	-0.326088	-0.212675
20281	-9.013570	3.992910	-1.773190	-0.158920	0.058946	-0.156398	0.990515	-0.516076	0.235773	0.264340	-0.120905	-0.956821	0.287759	-0.937032	0.197904	-0.920499	-0.327648	-0.212904
20282	-9.287490	3.709990	-2.444550	-0.249037	0.071224	-0.191503	0.992675	-0.519311	0.233264	0.264400	-0.118861	-0.957060	0.290625	-0.936424	0.196587	-0.919581	-0.330124	-0.213047
20283	-9.548470	2.672210	-2.898650	-0.287141	0.046153	-0.215071	0.993774	-0.512115	0.234624	0.264168	-0.116672	-0.957394	0.293842	-0.935729	0.195110	-0.918625	-0.332864	-0.212907
20284	-9.410890	1.740440	-3.098150	-0.259755	0.049274	-0.234980	0.990399	-0.511591	0.226967	0.263987	-0.114261	-0.957734	0.297076	-0.935054	0.193440	-0.917636	-0.335586	-0.212898
20285	-9.272120	0.896938	-3.091330	-0.188686	0.031985	-0.233824	0.998520	-0.510982	0.223604	0.263556	-0.111945	-0.958127	0.299433	-0.934687	0.191573	-0.916994	-0.337385	-0.212822
20286	-9.375630	0.472089	-2.848430	-0.122569	0.015861	-0.209652	0.993668	-0.504399	0.222917	0.263100	-0.109888	-0.958490	0.301435	-0.934392	0.189867	-0.916469	-0.338876	-0.212714
20287	-9.514630	0.561314	-2.595750	-0.037287	0.001348	-0.168972	0.995759	-0.496281	0.227602	0.262574	-0.108282	-0.958817	0.302230	-0.934452	0.188297	-0.916358	-0.339225	-0.212637
20288	-9.616710	0.768543	-2.266750	-0.002028	-0.002931	-0.144906	0.998876	-0.498122	0.219152	0.262052	-0.106926	-0.959112	0.302687	-0.934586	0.186893	-0.916357	-0.339286	-0.212545
20289	-9.561080	0.698506	-1.836040	0.022384	0.014303	-0.114707	0.993379	-0.499805	0.220106	0.261808	-0.105784	-0.959305	0.302792	-0.934787	0.185716	-0.916392	-0.339092	-0.212704
20290	-9.515160	0.749304	-1.569530	0.047750	0.026661	-0.087298	0.998242	-0.494629	0.226545	0.261731	-0.104856	-0.959428	0.302796	-0.934970	0.184786	-0.916412	-0.338875	-0.212960
20291	-9.518790	0.878279	-1.421660	0.106273	0.030553	-0.063149	1.007965	-0.503291	0.233870	0.261792	-0.104140	-0.959489	0.301997	-0.935398	0.183924	-0.916658	-0.337913	-0.213429
20292	-9.587440	1.005840	-1.427160	0.161422	0.034075	-0.029946	0.994515	-0.497945	0.226491	0.261979	-0.103708	-0.959485	0.300686	-0.935950	0.183264	-0.917036	-0.336515	-0.214016
20293	-9.564520	1.105500	-1.527120	0.210564	0.039712	-0.005188	0.999781	-0.492688	0.230560	0.262300	-0.103504	-0.959419	0.298778	-0.936664	0.182734	-0.917567	-0.334585	-0.214762
20294	-9.469630	1.265470	-1.590390	0.253511	0.047795	0.009549	0.992227	-0.502109	0.228699	0.262728	-0.103406	-0.959313	0.296541	-0.937466	0.182265	-0.918171	-0.332362	-0.215635
20295	-9.348240	1.691800	-1.729550	0.279586	0.052501	0.022087	0.998493	-0.495937	0.236399	0.263248	-0.103417	-0.959169	0.293925	-0.938371	0.181844	-0.918863	-0.329794	-0.216627
20296	-9.424400	1.876980	-1.935540	0.300528	0.046722	0.028785	1.002103	-0.495075	0.239701	0.263811	-0.103459	-0.959010	0.291426	-0.939219	0.181491	-0.919497	-0.327360	-0.217626
20297	-9.556750	2.034450	-2.085810	0.283545	0.041478	0.046537	0.998216	-0.488451	0.239570	0.264300	-0.103739	-0.958845	0.288705	-0.940097	0.181290	-0.920215	-0.324739	-0.218518
20298	-9.410630	2.248960	-2.141120	0.194905	0.051062	0.047488	1.000216	-0.489594	0.233229	0.264823	-0.104016	-0.958671	0.286703	-0.940715	0.181267	-0.920690	-0.322857	-0.219301
20299	-9.350040	2.341610	-2.342100	0.071714	0.061433	0.041853	0.993600	-0.498969	0.244086	0.265481	-0.104189	-0.958470	0.285942	-0.940905	0.181481	-0.920737	-0.322247	-0.220000
20300	-9.261150	2.021060	-2.630230	-0.084232	0.073879	0.027853	0.995196	-0.493744	0.241948	0.266207	-0.104179	-0.958270	0.286781	-0.940564	0.181922	-0.920267	-0.323242	-0.220508
20301	-9.340070	1.687680	-2.607090	-0.152998	0.077279	0.021914	0.997465	-0.495843	0.243384	0.266953	-0.104112	-0.958069	0.288141	-0.940048	0.182440	-0.919625	-0.324762	-0.220950
20302	-9.355220	1.930470	-2.386880	-0.150440	0.090284	0.018714	0.999511	-0.496939	0.239497	0.267811	-0.103961	-0.957846	0.289543	-0.939522	0.182928	-0.918935	-0.326328	-0.221513
20303	-9.402820	2.534360	-2.126370	-0.168821	0.087039	-0.000008	0.991033	-0.501533	0.238975	0.268583	-0.103654	-0.957663	0.291104	-0.938972	0.183273	-0.918216	-0.328004	-0.222018
20304	-9.501110	2.274790	-2.063340	-0.170803	0.072234	-0.007221	0.998226	-0.498353	0.243554	0.269251	-0.103274	-0.957517	0.293013	-0.938315	0.183597	-0.917413	-0.329999	-0.222382
20305	-9.668830	1.640810	-2.022130	-0.085431	0.051225	0.005840	0.998403	-0.499640	0.242252	0.269710	-0.103137	-0.957402	0.293792	-0.938029	0.183814	-0.917029	-0.330854	-0.222695
20306	-9.544380	1.439860	-1.957480	0.046829	0.023659	0.013498	0.990667	-0.502602	0.248462	0.269963	-0.103131	-0.957332	0.293494	-0.938120	0.183826	-0.917050	-0.330597	-0.222989
20307	-9.476640	1.987260	-1.663480	0.098852	0.032521	0.004862	0.995125	-0.502643	0.244761	0.270248	-0.103047	-0.957260	0.292585	-0.938444	0.183623	-0.917257	-0.329704	-0.223462
20308	-9.385920	2.509230	-1.636860	-0.044150	0.054172	-0.003487	0.995721	-0.498496	0.244190	0.270847	-0.102716	-0.957127	0.293396	-0.938174	0.183707	-0.916821	-0.330574	-0.223965
20309	-9.330770	2.075240	-1.885560	-0.177294	0.043763	0.005692	0.996130	-0.508545	0.242268	0.271238	-0.102602	-0.957028	0.295017	-0.937582	0.184130	-0.916185	-0.332283	-0.224038
20310	-9.603940	0.712587	-2.358610	-0.170309	0.029055	0.035333	0.989603	-0.510284	0.241477	0.271695	-0.102715	-0.956886	0.296949	-0.936825	0.184876	-0.915425	-0.334377	-0.224029
20311	-9.660280	-0.384775	-2.651950	-0.078922	0.014514	0.083675	0.990272	-0.500444	0.240269	0.272049	-0.103428	-0.956709	0.297456	-0.936477	0.185825	-0.915155	-0.335132	-0.224002
20312	-9.619170	-0.614338	-2.667820	-0.005111	0.011931	0.139314	0.996855	-0.512770	0.242816	0.272715	-0.104529	-0.956400	0.297747	-0.936108	0.187213	-0.914863	-0.335821	-0.224167
20313	-9.483230	-0.376159	-2.568280	0.017960	0.021737	0.203862	0.989075	-0.510914	0.246654	0.273493	-0.106342	-0.955977	0.297038	-0.935955	0.189093	-0.914861	-0.335678	-0.224390
20314	-9.356140	-0.014158	-2.079010	-0.036544	0.038247	0.263068	0.994184	-0.513630	0.243111	0.274813	-0.108458	-0.955361	0.297396	-0.935305	0.191729	-0.914349	-0.336810	-0.224779
20315	-9.308200	0.346407	-1.935750	-0.130822	0.067100	0.318953	0.994867	-0.513154	0.244578	0.276349	-0.111192	-0.954603	0.297726	-0.934515	0.195041	-0.913778	-0.338110	-0.225148
20316	-9.495270	0.233981	-1.996410	-0.179467	0.070190	0.374780	0.989917	-0.509899	0.246526	0.278180	-0.114311	-0.953703	0.298781	-0.933339	0.199020	-0.912878	-0.340311	-0.225482
20317	-9.571690	0.007553	-2.280990	-0.139026	0.070066	0.436310	0.982813	-0.519988	0.239436	0.280096	-0.118120	-0.952677	0.298845	-0.932359	0.203464	-0.912271	-0.341693	-0.225851
20318	-9.621870	0.000816	-2.688450	-0.041784	0.034798	0.495518	0.986930	-0.530288	0.240540	0.281866	-0.122566	-0.951593	0.297930	-0.931598	0.208239	-0.912025	-0.342204	-0.226069
