// Start Time: Unknown
// Update Rate: 100.0Hz
// Filter Profile: human (46.1)
// Firmware Version: 4.6.0
PacketCounter	Acc_X	Acc_Y	Acc_Z	Gyr_X	Gyr_Y	Gyr_Z	Mag_X	Mag_Y	Mag_Z	Mat[1][1]	Mat[2][1]	Mat[3][1]	Mat[1][2]	Mat[2][2]	Mat[3][2]	Mat[1][3]	Mat[2][3]	Mat[3][3]
19648	-9.396260	2.643850	-0.869738	0.043638	0.004405	0.003891	0.949875	-0.511091	-0.023690	0.269044	-0.074041	-0.960278	0.793958	-0.547350	0.264648	-0.545203	-0.833622	-0.088476
19649	-9.428570	2.668580	-0.827348	0.047560	-0.004316	-0.004301	0.942013	-0.510324	-0.020338	0.268986	-0.074053	-0.960293	0.793710	-0.547750	0.264565	-0.545592	-0.833358	-0.088561
19650	-9.489330	2.705800	-0.799461	0.055455	-0.007342	-0.012182	0.945813	-0.516493	-0.028195	0.268848	-0.074034	-0.960333	0.793440	-0.548226	0.264389	-0.546054	-0.833047	-0.088648
19651	-9.539950	2.649890	-0.833490	0.056372	-0.008515	-0.015636	0.944657	-0.518741	-0.032005	0.268677	-0.074019	-0.960382	0.793174	-0.548707	0.264189	-0.546524	-0.832731	-0.088715
19652	-9.512180	2.634830	-0.819551	0.054464	-0.002388	-0.012852	0.944344	-0.512549	-0.028760	0.268563	-0.073973	-0.960418	0.792910	-0.549169	0.264020	-0.546962	-0.832431	-0.088833
19653	-9.453750	2.564360	-0.833247	0.053419	0.000802	-0.012214	0.949749	-0.519358	-0.028805	0.268470	-0.073899	-0.960449	0.792651	-0.549623	0.263855	-0.547383	-0.832138	-0.088981
19654	-9.356560	2.537670	-0.761252	0.038953	-0.000168	-0.013443	0.954082	-0.512622	-0.026200	0.268361	-0.073833	-0.960485	0.792474	-0.549955	0.263694	-0.547693	-0.831925	-0.089075
19655	-9.318990	2.503170	-0.782865	0.012080	-0.003040	-0.011621	0.938011	-0.512038	-0.029574	0.268252	-0.073795	-0.960518	0.792439	-0.550064	0.263572	-0.547796	-0.831856	-0.089078
19656	-9.428360	2.516130	-0.803835	0.001786	0.001532	-0.022040	0.943716	-0.520368	-0.033365	0.268074	-0.073674	-0.960577	0.792492	-0.550091	0.263356	-0.547808	-0.831848	-0.089079
19657	-9.503830	2.533490	-0.885293	-0.002010	0.013890	-0.027483	0.955003	-0.521038	-0.019323	0.267932	-0.073407	-0.960637	0.792576	-0.550095	0.263094	-0.547754	-0.831870	-0.089207
19658	-9.535960	2.508610	-0.966803	0.023584	0.024093	-0.045305	0.946814	-0.518674	-0.027649	0.267683	-0.072969	-0.960740	0.792575	-0.550321	0.262626	-0.547879	-0.831759	-0.089478
19659	-9.557320	2.440430	-0.907584	0.053300	0.026886	-0.049110	0.952472	-0.509802	-0.032759	0.267441	-0.072475	-0.960845	0.792414	-0.550800	0.262106	-0.548229	-0.831485	-0.089877
19660	-9.539760	2.442300	-0.860483	0.067773	0.022316	-0.042423	0.951884	-0.515183	-0.023049	0.267192	-0.072047	-0.960946	0.792165	-0.551396	0.261603	-0.548710	-0.831126	-0.090256
19661	-9.532680	2.537910	-0.750873	0.067226	0.004678	-0.029285	0.954095	-0.518113	-0.022702	0.266985	-0.071846	-0.961019	0.791875	-0.551976	0.261261	-0.549230	-0.830759	-0.090476
19662	-9.468780	2.634790	-0.706435	0.045410	-0.019553	-0.015689	0.951179	-0.512099	-0.025859	0.266692	-0.071916	-0.961095	0.791684	-0.552366	0.261015	-0.549648	-0.830494	-0.090377
19663	-9.447490	2.701040	-0.686479	0.019036	-0.037730	-0.006814	0.953868	-0.519019	-0.024477	0.266431	-0.072192	-0.961147	0.791597	-0.552529	0.260932	-0.549899	-0.830361	-0.090064
19664	-9.406760	2.702400	-0.638869	-0.008616	-0.054226	0.002502	0.945406	-0.514981	-0.032935	0.266086	-0.072699	-0.961204	0.791656	-0.552444	0.260934	-0.549981	-0.830374	-0.089445
19665	-9.379600	2.586550	-0.627641	-0.040731	-0.048384	0.003246	0.950177	-0.509393	-0.027682	0.265846	-0.073119	-0.961239	0.791871	-0.552104	0.261002	-0.549787	-0.830563	-0.088874
19666	-9.350770	2.501030	-0.633306	-0.053397	-0.033506	-0.000561	0.947184	-0.510864	-0.023640	0.265579	-0.073497	-0.961283	0.792187	-0.551633	0.261039	-0.549461	-0.830843	-0.088279
19667	-9.327460	2.449020	-0.760806	-0.046776	-0.002113	-0.006203	0.955207	-0.522686	-0.035395	0.265519	-0.073480	-0.961301	0.792461	-0.551248	0.261020	-0.549096	-0.831099	-0.088136
19668	-9.398550	2.455730	-0.900162	-0.022034	0.025479	-0.013436	0.951574	-0.510368	-0.023313	0.265441	-0.073321	-0.961335	0.792648	-0.551041	0.260891	-0.548863	-0.831251	-0.088151
19669	-9.447740	2.529150	-1.024290	0.006678	0.046013	-0.019154	0.947407	-0.515199	-0.019719	0.265541	-0.072833	-0.961344	0.792662	-0.551110	0.260701	-0.548794	-0.831248	-0.088611
19670	-9.468710	2.562820	-1.038090	0.027663	0.049343	-0.018501	0.947737	-0.511912	-0.025910	0.265560	-0.072406	-0.961371	0.792586	-0.551332	0.260460	-0.548894	-0.831138	-0.089024
19671	-9.491320	2.566330	-1.035090	0.024482	0.031627	-0.012861	0.947081	-0.514875	-0.029747	0.265632	-0.072072	-0.961377	0.792486	-0.551545	0.260315	-0.549004	-0.831026	-0.089392
19672	-9.448870	2.570930	-0.913465	0.014649	0.013586	-0.009467	0.946457	-0.506461	-0.022229	0.265558	-0.071951	-0.961406	0.792451	-0.551660	0.260176	-0.549090	-0.830960	-0.089480
19673	-9.501930	2.531440	-0.807861	0.005705	-0.007310	-0.019208	0.943597	-0.513906	-0.025111	0.265366	-0.071906	-0.961463	0.792471	-0.551722	0.259986	-0.549154	-0.830923	-0.089425
19674	-9.526760	2.504520	-0.782962	0.002972	-0.016459	-0.018627	0.954657	-0.515549	-0.030191	0.265054	-0.071981	-0.961543	0.792522	-0.551752	0.259766	-0.549231	-0.830896	-0.089197
19675	-9.563040	2.467240	-0.704898	-0.000990	-0.022165	-0.018923	0.958247	-0.523253	-0.022976	0.264782	-0.072061	-0.961612	0.792578	-0.551757	0.259585	-0.549282	-0.830886	-0.088982
19676	-9.535370	2.452560	-0.687720	-0.000681	-0.024433	-0.014592	0.947550	-0.510688	-0.030783	0.264396	-0.072258	-0.961703	0.792662	-0.551734	0.259377	-0.549346	-0.830884	-0.088600
19677	-9.509220	2.407840	-0.654044	-0.002015	-0.024517	-0.012841	0.954381	-0.511159	-0.030720	0.264160	-0.072391	-0.961758	0.792707	-0.551726	0.259256	-0.549395	-0.830878	-0.088359
19678	-9.477240	2.381520	-0.695547	0.002359	-0.017551	-0.010843	0.951628	-0.511177	-0.026117	0.263787	-0.072572	-0.961847	0.792775	-0.551726	0.259047	-0.549476	-0.830862	-0.088005
19679	-9.378160	2.412740	-0.734812	0.001684	-0.007642	-0.002965	0.951440	-0.511452	-0.030290	0.263722	-0.072619	-0.961861	0.792774	-0.551742	0.259017	-0.549509	-0.830847	-0.087936
19680	-9.410510	2.463880	-0.788415	-0.000816	0.004703	0.000826	0.955982	-0.514790	-0.022089	0.263512	-0.072685	-0.961914	0.792840	-0.551709	0.258884	-0.549514	-0.830863	-0.087754
19681	-9.408860	2.494150	-0.805732	0.006275	0.013598	-0.001992	0.951152	-0.514367	-0.025799	0.263571	-0.072562	-0.961907	0.792811	-0.551763	0.258859	-0.549528	-0.830839	-0.087901
19682	-9.518850	2.580390	-0.802787	0.010661	0.020648	-0.010989	0.949457	-0.515826	-0.025903	0.263335	-0.072429	-0.961982	0.792851	-0.551834	0.258585	-0.549583	-0.830803	-0.087891
19683	-9.537580	2.571760	-0.856195	0.014220	0.025177	-0.023390	0.949325	-0.514661	-0.033924	0.263287	-0.072091	-0.962020	0.792835	-0.551969	0.258347	-0.549630	-0.830743	-0.088170
19684	-9.526630	2.579790	-0.910822	0.003556	0.017372	-0.024615	0.953417	-0.506176	-0.031970	0.262976	-0.071920	-0.962118	0.792952	-0.551965	0.257998	-0.549610	-0.830760	-0.088124
19685	-9.517450	2.531670	-0.850505	-0.011804	0.004784	-0.021176	0.960228	-0.509725	-0.028895	0.262834	-0.071764	-0.962168	0.793072	-0.551881	0.257805	-0.549504	-0.830829	-0.088139
19686	-9.442860	2.536560	-0.866909	-0.021719	0.003274	-0.023133	0.954682	-0.516436	-0.032020	0.262399	-0.071728	-0.962290	0.793323	-0.551688	0.257447	-0.549350	-0.830960	-0.087859
19687	-9.343000	2.493870	-0.932691	-0.035071	0.008060	-0.022078	0.953645	-0.521649	-0.025960	0.262267	-0.071540	-0.962340	0.793574	-0.551412	0.257265	-0.549051	-0.831160	-0.087845
19688	-9.337790	2.484470	-0.910340	-0.034016	0.012089	-0.018476	0.951640	-0.513160	-0.024815	0.261984	-0.071432	-0.962425	0.793900	-0.551062	0.257009	-0.548714	-0.831402	-0.087660
19689	-9.404420	2.529440	-0.904223	-0.045875	0.009398	-0.010903	0.956353	-0.512347	-0.030580	0.261948	-0.071295	-0.962445	0.794181	-0.550687	0.256945	-0.548325	-0.831661	-0.087631
19690	-9.472450	2.544860	-0.881278	-0.052779	0.007460	-0.002350	0.954536	-0.511778	-0.022992	0.261796	-0.071283	-0.962487	0.794528	-0.550225	0.256861	-0.547895	-0.831968	-0.087410
19691	-9.523530	2.537270	-0.790297	-0.060099	-0.002957	0.000262	0.951762	-0.510931	-0.034960	0.261781	-0.071310	-0.962489	0.794857	-0.549725	0.256916	-0.547425	-0.832297	-0.087226
19692	-9.535000	2.527110	-0.735867	-0.061208	-0.008751	-0.002029	0.947609	-0.502448	-0.020144	0.261563	-0.071435	-0.962539	0.795239	-0.549197	0.256860	-0.546973	-0.832634	-0.086842
19693	-9.583710	2.476220	-0.685894	-0.052515	-0.010916	-0.016174	0.955092	-0.505511	-0.031210	0.261374	-0.071438	-0.962590	0.795569	-0.548771	0.256750	-0.546583	-0.832915	-0.086600
19694	-9.545030	2.368910	-0.731529	-0.034624	0.003883	-0.025907	0.953871	-0.513718	-0.028733	0.261026	-0.071318	-0.962694	0.795817	-0.548567	0.256418	-0.546389	-0.833059	-0.086434
19695	-9.480550	2.316900	-0.818873	-0.017079	0.013543	-0.022222	0.953378	-0.526173	-0.024267	0.260922	-0.071084	-0.962739	0.795969	-0.548440	0.256217	-0.546218	-0.833163	-0.086519
19696	-9.401560	2.310080	-0.895051	-0.000410	0.018926	-0.020636	0.958030	-0.509452	-0.030185	0.260663	-0.070883	-0.962824	0.796110	-0.548383	0.255901	-0.546135	-0.833218	-0.086512
19697	-9.362010	2.306290	-0.934673	0.017939	0.023787	-0.006791	0.957988	-0.512118	-0.025683	0.260739	-0.070649	-0.962821	0.796030	-0.548537	0.255821	-0.546216	-0.833136	-0.086787
19698	-9.364490	2.374080	-0.992365	0.033274	0.021871	-0.007697	0.952148	-0.514322	-0.025881	0.260498	-0.070448	-0.962901	0.795948	-0.548812	0.255484	-0.546450	-0.832972	-0.086892
19699	-9.364090	2.476410	-0.985158	0.037340	0.011035	-0.002066	0.958482	-0.509883	-0.025809	0.260542	-0.070344	-0.962896	0.795750	-0.549124	0.255431	-0.546718	-0.832775	-0.087093
19700	-9.453090	2.527350	-0.972527	0.026796	-0.006113	0.006259	0.945557	-0.517099	-0.024645	0.260342	-0.070393	-0.962947	0.795642	-0.549357	0.255268	-0.546970	-0.832618	-0.087013
19701	-9.482670	2.587350	-0.863631	0.012499	-0.021912	0.009037	0.949195	-0.510702	-0.025233	0.260294	-0.070625	-0.962943	0.795550	-0.549454	0.255344	-0.547127	-0.832533	-0.086834
19702	-9.513760	2.617490	-0.736480	-0.012406	-0.036546	0.013507	0.961132	-0.504010	-0.026180	0.260168	-0.070950	-0.962953	0.795582	-0.549370	0.255425	-0.547140	-0.832561	-0.086482
19703	-9.540620	2.635830	-0.666346	-0.029208	-0.039913	0.009105	0.950742	-0.513808	-0.031959	0.260023	-0.071333	-0.962964	0.795717	-0.549121	0.255539	-0.547012	-0.832693	-0.086023
19704	-9.595820	2.666820	-0.610805	-0.040262	-0.034459	0.003656	0.950676	-0.512302	-0.028452	0.259658	-0.071658	-0.963038	0.795982	-0.548779	0.255449	-0.546800	-0.832890	-0.085457
19705	-9.573290	2.662010	-0.615016	-0.044180	-0.011113	-0.001659	0.950190	-0.515267	-0.028122	0.259585	-0.071741	-0.963052	0.796227	-0.548413	0.255471	-0.546478	-0.833125	-0.085237
19706	-9.532680	2.586600	-0.677091	-0.038185	0.006535	-0.009258	0.956371	-0.519902	-0.032440	0.259470	-0.071723	-0.963084	0.796483	-0.548074	0.255401	-0.546160	-0.833349	-0.085082
19707	-9.401400	2.490510	-0.770899	-0.034047	0.019205	-0.003197	0.951938	-0.512126	-0.031846	0.259550	-0.071546	-0.963076	0.796677	-0.547793	0.255400	-0.545839	-0.833549	-0.085181
19708	-9.330570	2.433170	-0.837175	-0.020552	0.026835	0.007046	0.950408	-0.507925	-0.027973	0.259617	-0.071501	-0.963061	0.796853	-0.547507	0.255461	-0.545549	-0.833741	-0.085167
19709	-9.344290	2.415650	-0.949159	-0.007785	0.035483	0.011262	0.958498	-0.517472	-0.026643	0.259902	-0.071268	-0.963001	0.796866	-0.547434	0.255578	-0.545395	-0.833808	-0.085488
19710	-9.373590	2.398960	-0.951190	0.013119	0.035433	0.003553	0.953182	-0.511087	-0.032000	0.259991	-0.071055	-0.962993	0.796814	-0.547534	0.255526	-0.545428	-0.833761	-0.085737
19711	-9.489420	2.390420	-0.981707	0.031846	0.025461	0.000928	0.950301	-0.513419	-0.034117	0.260139	-0.070849	-0.962968	0.796638	-0.547799	0.255510	-0.545615	-0.833605	-0.086063
19712	-9.593840	2.468620	-0.956985	0.034004	0.013638	-0.005903	0.956395	-0.514433	-0.032624	0.260058	-0.070776	-0.962996	0.796534	-0.548010	0.255381	-0.545806	-0.833472	-0.086139
19713	-9.604160	2.460620	-0.825085	0.041070	-0.006407	-0.014687	0.952237	-0.506032	-0.034694	0.259908	-0.070751	-0.963038	0.796347	-0.548362	0.255207	-0.546149	-0.833243	-0.086181
19714	-9.549130	2.506090	-0.768836	0.029599	-0.022388	-0.002913	0.948754	-0.509773	-0.029070	0.259586	-0.070979	-0.963108	0.796277	-0.548538	0.255046	-0.546404	-0.833108	-0.085873
19715	-9.513840	2.515520	-0.745999	0.011444	-0.025942	0.005421	0.961376	-0.511973	-0.023388	0.259487	-0.071229	-0.963116	0.796201	-0.548628	0.255091	-0.546562	-0.833027	-0.085650
19716	-9.478350	2.525780	-0.722975	0.002302	-0.019494	0.012424	0.950500	-0.517306	-0.030162	0.259334	-0.071456	-0.963141	0.796175	-0.548669	0.255083	-0.546673	-0.832981	-0.085397
19717	-9.427200	2.508770	-0.714270	-0.002325	-0.007997	0.013263	0.948758	-0.514457	-0.028804	0.259396	-0.071599	-0.963113	0.796154	-0.548639	0.255215	-0.546674	-0.832988	-0.085311
19718	-9.409930	2.512610	-0.743432	-0.008698	-0.005057	0.009904	0.950429	-0.510115	-0.027570	0.259426	-0.071775	-0.963092	0.796210	-0.548495	0.255350	-0.546579	-0.833068	-0.085146
19719	-9.407070	2.471250	-0.784895	-0.011910	-0.004470	0.008880	0.956580	-0.510145	-0.031148	0.259474	-0.071865	-0.963073	0.796252	-0.548388	0.255449	-0.546495	-0.833131	-0.085069
19720	-9.464970	2.467820	-0.798090	-0.011117	0.003593	0.006852	0.949482	-0.514974	-0.028312	0.259396	-0.071920	-0.963090	0.796328	-0.548289	0.255424	-0.546421	-0.833191	-0.084952
19721	-9.470440	2.476210	-0.820848	-0.006421	0.008389	0.002196	0.951134	-0.505994	-0.026839	0.259459	-0.071866	-0.963076	0.796357	-0.548232	0.255454	-0.546348	-0.833233	-0.085013
19722	-9.500140	2.459000	-0.820526	-0.002596	0.016119	-0.000315	0.947794	-0.515163	-0.029318	0.259465	-0.071757	-0.963083	0.796366	-0.548246	0.255398	-0.546333	-0.833233	-0.085106
19723	-9.545140	2.495680	-0.904254	0.005212	0.016796	-0.001325	0.951098	-0.505655	-0.023641	0.259546	-0.071613	-0.963072	0.796341	-0.548289	0.255383	-0.546331	-0.833217	-0.085278
19724	-9.577600	2.520190	-0.862523	0.010731	0.016892	-0.006814	0.953862	-0.516785	-0.025410	0.259526	-0.071441	-0.963090	0.796279	-0.548438	0.255258	-0.546431	-0.833134	-0.085447
19725	-9.474310	2.513140	-0.865666	0.014222	0.012367	-0.011145	0.949238	-0.512781	-0.027470	0.259506	-0.071280	-0.963107	0.796230	-0.548563	0.255141	-0.546512	-0.833065	-0.085600
19726	-9.371050	2.506080	-0.868482	0.009806	0.010847	-0.007604	0.957038	-0.516282	-0.025105	0.259474	-0.071178	-0.963123	0.796202	-0.548644	0.255051	-0.546566	-0.833020	-0.085687
19727	-9.382560	2.494930	-0.817025	-0.002880	0.005628	-0.003449	0.949655	-0.502619	-0.025224	0.259480	-0.071115	-0.963127	0.796227	-0.548622	0.255024	-0.546529	-0.833040	-0.085733
19728	-9.417910	2.485650	-0.838415	-0.012585	0.005524	0.005777	0.958253	-0.509087	-0.026908	0.259443	-0.071070	-0.963140	0.796275	-0.548576	0.254973	-0.546476	-0.833075	-0.085732
19729	-9.542190	2.528110	-0.845694	0.000801	-0.004800	0.010159	0.950160	-0.512999	-0.023058	0.259499	-0.071168	-0.963118	0.796243	-0.548575	0.255073	-0.546495	-0.833067	-0.085688
19730	-9.601690	2.494370	-0.841903	0.006661	-0.019741	0.010192	0.944851	-0.518242	-0.026331	0.259375	-0.071360	-0.963137	0.796181	-0.548670	0.255065	-0.546645	-0.832988	-0.085496
19731	-9.553890	2.415980	-0.800104	0.013414	-0.023089	0.005576	0.949451	-0.509159	-0.026767	0.259295	-0.071584	-0.963142	0.796092	-0.548778	0.255109	-0.546812	-0.832898	-0.085308
19732	-9.511820	2.344920	-0.781019	0.019677	-0.016697	-0.000631	0.946328	-0.514196	-0.029030	0.259244	-0.071761	-0.963142	0.795954	-0.548962	0.255145	-0.547037	-0.832761	-0.085197
19733	-9.428530	2.301270	-0.816808	0.025991	-0.001326	-0.003907	0.961603	-0.511302	-0.022072	0.259209	-0.071752	-0.963152	0.795820	-0.549181	0.255088	-0.547248	-0.832617	-0.085251
19734	-9.391650	2.340280	-0.813013	0.035695	0.005988	-0.008894	0.958940	-0.512975	-0.022934	0.259068	-0.071621	-0.963200	0.795661	-0.549515	0.254867	-0.547547	-0.832408	-0.085376
19735	-9.416930	2.412960	-0.862435	0.053877	0.011200	-0.007548	0.954050	-0.510801	-0.022647	0.259073	-0.071487	-0.963208	0.795384	-0.549969	0.254751	-0.547947	-0.832120	-0.085623
19736	-9.448900	2.566170	-0.909190	0.074114	0.008267	-0.006156	0.942473	-0.504805	-0.016628	0.258932	-0.071281	-0.963262	0.794999	-0.550664	0.254451	-0.548572	-0.831678	-0.085916
19737	-9.480810	2.719630	-0.956129	0.080793	0.003058	0.001541	0.945093	-0.509585	-0.027602	0.258964	-0.071263	-0.963254	0.794550	-0.551336	0.254398	-0.549206	-0.831234	-0.086155
19738	-9.502910	2.827820	-0.941123	0.066210	-0.008790	0.009691	0.947375	-0.520683	-0.030104	0.259031	-0.071327	-0.963232	0.794061	-0.552032	0.254416	-0.549881	-0.830767	-0.086356
19739	-9.443270	2.837010	-0.846811	0.038144	-0.021058	0.011838	0.949909	-0.509820	-0.022649	0.259014	-0.071564	-0.963219	0.793819	-0.552343	0.254499	-0.550240	-0.830540	-0.086255
19740	-9.345510	2.813760	-0.771710	-0.001708	-0.026944	0.013482	0.954593	-0.511098	-0.026066	0.259055	-0.071963	-0.963178	0.793771	-0.552292	0.254756	-0.550288	-0.830539	-0.085952
19741	-9.318620	2.771790	-0.737520	-0.037274	-0.022081	0.012993	0.953358	-0.508411	-0.026421	0.259043	-0.072217	-0.963162	0.793940	-0.551975	0.254917	-0.550051	-0.830728	-0.085649
19742	-9.318890	2.670040	-0.744109	-0.050014	-0.008988	0.010494	0.952429	-0.509711	-0.029914	0.258990	-0.072363	-0.963166	0.794217	-0.551540	0.254998	-0.549677	-0.831004	-0.085371
19743	-9.365370	2.677470	-0.808439	-0.053021	0.005871	0.008449	0.947964	-0.514968	-0.023395	0.259094	-0.072359	-0.963138	0.794484	-0.551095	0.255127	-0.549241	-0.831299	-0.085297
19744	-9.463270	2.599640	-0.890681	-0.043500	0.013428	0.001946	0.951645	-0.510409	-0.026036	0.259228	-0.072340	-0.963103	0.794698	-0.550722	0.255266	-0.548868	-0.831548	-0.085274
19745	-9.406910	2.496930	-0.968088	-0.033385	0.021993	-0.001344	0.948731	-0.516831	-0.024942	0.259343	-0.072148	-0.963087	0.794883	-0.550447	0.255284	-0.548546	-0.831747	-0.085405
19746	-9.438120	2.449590	-0.951426	-0.030276	0.017877	0.002307	0.950721	-0.518922	-0.026731	0.259554	-0.072068	-0.963036	0.794999	-0.550207	0.255439	-0.548278	-0.831913	-0.085515
19747	-9.482180	2.387570	-0.962837	-0.027070	0.010071	-0.000905	0.952891	-0.520758	-0.024106	0.259608	-0.071977	-0.963028	0.795147	-0.549984	0.255458	-0.548037	-0.832068	-0.085548
19748	-9.562980	2.388170	-0.969089	-0.018062	0.005631	-0.010721	0.949666	-0.510531	-0.023619	0.259747	-0.071970	-0.962991	0.795216	-0.549825	0.255585	-0.547871	-0.832173	-0.085583
19749	-9.581850	2.353980	-0.923144	-0.006070	0.006310	-0.015470	0.939955	-0.506890	-0.028701	0.259667	-0.071832	-0.963023	0.795286	-0.549788	0.255448	-0.547808	-0.832210	-0.085635
19750	-9.512790	2.341320	-0.865209	-0.000802	0.004795	-0.010162	0.956782	-0.521055	-0.022617	0.259660	-0.071738	-0.963032	0.795268	-0.549842	0.255385	-0.547837	-0.832182	-0.085721
19751	-9.558310	2.350720	-0.850388	0.002999	-0.002004	-0.010164	0.960107	-0.520153	-0.016172	0.259576	-0.071698	-0.963057	0.795275	-0.549877	0.255291	-0.547867	-0.832163	-0.085715
19752	-9.516870	2.480710	-0.894660	0.018744	-0.002670	-0.009362	0.947614	-0.508440	-0.016956	0.259655	-0.071556	-0.963047	0.795125	-0.550110	0.255254	-0.548047	-0.832021	-0.085943
19753	-9.450220	2.537140	-0.891538	0.036445	-0.007790	-0.001656	0.951652	-0.514879	-0.024330	0.259610	-0.071609	-0.963055	0.794925	-0.550418	0.255215	-0.548359	-0.831812	-0.085970
19754	-9.373600	2.574100	-0.924671	0.052780	-0.007451	0.002359	0.948440	-0.512309	-0.022283	0.259681	-0.071553	-0.963040	0.794556	-0.550964	0.255186	-0.548859	-0.831456	-0.086222
19755	-9.326880	2.567950	-0.859090	0.060283	-0.017360	0.009225	0.952590	-0.508558	-0.023494	0.259672	-0.071744	-0.963028	0.794195	-0.551463	0.255230	-0.549385	-0.831109	-0.086221
19756	-9.333620	2.623130	-0.758247	0.051039	-0.021648	0.014612	0.949962	-0.509590	-0.027488	0.259689	-0.071913	-0.963011	0.793851	-0.551932	0.255288	-0.549875	-0.830783	-0.086243
19757	-9.377140	2.664980	-0.758537	0.031753	-0.025432	0.015221	0.950305	-0.520633	-0.031476	0.259683	-0.072203	-0.962991	0.793631	-0.552189	0.255415	-0.550195	-0.830586	-0.086092
19758	-9.467500	2.687070	-0.726690	0.006508	-0.025016	0.014169	0.951456	-0.512928	-0.029337	0.259694	-0.072658	-0.962954	0.793559	-0.552173	0.255674	-0.550294	-0.830557	-0.085737
19759	-9.523930	2.688560	-0.656717	-0.017090	-0.026780	0.015700	0.953296	-0.511354	-0.022128	0.259684	-0.072964	-0.962933	0.793606	-0.552024	0.255849	-0.550230	-0.830630	-0.085447
19760	-9.623130	2.683430	-0.710691	-0.025096	-0.021579	-0.001236	0.952369	-0.518110	-0.024204	0.259542	-0.073139	-0.962958	0.793757	-0.551808	0.255849	-0.550080	-0.830758	-0.085163
19761	-9.545660	2.621700	-0.670001	-0.029565	-0.004786	-0.004354	0.947474	-0.508231	-0.026687	0.259493	-0.073151	-0.962971	0.793925	-0.551569	0.255840	-0.549860	-0.830915	-0.085052
19762	-9.448600	2.519640	-0.703194	-0.029107	0.018304	-0.011939	0.951597	-0.509568	-0.024015	0.259559	-0.072969	-0.962967	0.794084	-0.551351	0.255817	-0.549599	-0.831076	-0.085164
19763	-9.413620	2.451330	-0.790455	-0.020601	0.030730	-0.008134	0.952767	-0.516534	-0.035368	0.259676	-0.072665	-0.962958	0.794213	-0.551190	0.255764	-0.549358	-0.831210	-0.085419
19764	-9.435040	2.409130	-0.908508	-0.004990	0.032076	-0.010160	0.949932	-0.507199	-0.026854	0.259725	-0.072475	-0.962959	0.794300	-0.551089	0.255712	-0.549208	-0.831293	-0.085565
19765	-9.468920	2.428840	-0.949119	0.012187	0.035018	-0.013737	0.954253	-0.517423	-0.017557	0.259820	-0.072105	-0.962961	0.794264	-0.551204	0.255577	-0.549216	-0.831249	-0.085943
19766	-9.470340	2.423100	-1.033470	0.017783	0.031325	-0.015092	0.952107	-0.509551	-0.023049	0.259922	-0.071683	-0.962965	0.794173	-0.551412	0.255409	-0.549299	-0.831148	-0.086395
19767	-9.439000	2.469420	-1.054030	0.004406	0.021580	-0.011515	0.946286	-0.520381	-0.021988	0.259962	-0.071436	-0.962973	0.794174	-0.551461	0.255302	-0.549280	-0.831136	-0.086626
19768	-9.407980	2.489960	-0.975660	-0.013746	0.003606	-0.011646	0.950517	-0.513834	-0.029906	0.260044	-0.071357	-0.962956	0.794198	-0.551412	0.255332	-0.549205	-0.831176	-0.086720
19769	-9.435220	2.506380	-0.908686	-0.030203	-0.014789	-0.010512	0.944944	-0.506724	-0.035726	0.259894	-0.071418	-0.962993	0.794385	-0.551173	0.255266	-0.549006	-0.831329	-0.086513
19770	-9.483560	2.558810	-0.848957	-0.047482	-0.021266	-0.004315	0.949643	-0.512861	-0.021067	0.259644	-0.071801	-0.963031	0.794710	-0.550679	0.255320	-0.548654	-0.831623	-0.085920
19771	-9.495200	2.548520	-0.793258	-0.050203	-0.023204	0.000497	0.954002	-0.509729	-0.020107	0.259533	-0.071996	-0.963047	0.794979	-0.550265	0.255377	-0.548317	-0.831881	-0.085577
19772	-9.513470	2.619280	-0.733997	-0.040439	-0.026982	0.006393	0.950635	-0.509777	-0.024549	0.259519	-0.072090	-0.963044	0.795136	-0.550007	0.255443	-0.548095	-0.832043	-0.085416
19773	-9.534630	2.655560	-0.739471	-0.032534	-0.022777	0.002760	0.946060	-0.509288	-0.029960	0.259429	-0.072291	-0.963053	0.795302	-0.549738	0.255506	-0.547898	-0.832203	-0.085125
19774	-9.460020	2.559800	-0.763156	-0.026273	-0.009170	0.000790	0.944769	-0.512045	-0.024251	0.259377	-0.072392	-0.963059	0.795442	-0.549520	0.255540	-0.547719	-0.832339	-0.084949
19775	-9.358180	2.523520	-0.747534	-0.017030	0.002340	-0.000352	0.953160	-0.511653	-0.030961	0.259400	-0.072367	-0.963055	0.795530	-0.549382	0.255559	-0.547579	-0.832432	-0.084940
19776	-9.412160	2.507000	-0.819716	-0.013934	0.011086	-0.008897	0.947017	-0.511841	-0.027878	0.259432	-0.072285	-0.963052	0.795606	-0.549276	0.255552	-0.547454	-0.832509	-0.084989
19777	-9.411250	2.433060	-0.846664	-0.000512	0.015391	-0.018021	0.945818	-0.513507	-0.028724	0.259386	-0.072054	-0.963082	0.795650	-0.549288	0.255387	-0.547412	-0.832521	-0.085147
19778	-9.468080	2.457460	-0.878406	0.011661	0.023039	-0.017024	0.950171	-0.513165	-0.025232	0.259468	-0.071895	-0.963072	0.795578	-0.549407	0.255357	-0.547477	-0.832456	-0.085356
19779	-9.445630	2.450670	-0.888316	0.016338	0.020521	-0.014930	0.946489	-0.518493	-0.021657	0.259475	-0.071640	-0.963089	0.795522	-0.549557	0.255209	-0.547556	-0.832379	-0.085606
19780	-9.466910	2.484960	-0.898933	0.011134	0.010937	-0.009357	0.947288	-0.515750	-0.027130	0.259685	-0.071530	-0.963040	0.795369	-0.549735	0.255304	-0.547679	-0.832271	-0.085865
19781	-9.394650	2.533660	-0.873551	0.000232	-0.005704	-0.004045	0.954596	-0.513540	-0.026672	0.259638	-0.071554	-0.963051	0.795371	-0.549744	0.255277	-0.547698	-0.832263	-0.085823
19782	-9.381970	2.548270	-0.843977	-0.015530	-0.012360	0.001908	0.949418	-0.513505	-0.023315	0.259673	-0.071761	-0.963027	0.795408	-0.549619	0.255431	-0.547627	-0.832328	-0.085642
19783	-9.479500	2.649640	-0.808870	-0.019336	-0.012778	-0.002328	0.950679	-0.510353	-0.027533	0.259602	-0.071853	-0.963039	0.795513	-0.549464	0.255439	-0.547509	-0.832422	-0.085482
19784	-9.571860	2.639450	-0.761190	-0.017806	-0.005631	-0.009319	0.956997	-0.510432	-0.025499	0.259557	-0.071846	-0.963051	0.795605	-0.549344	0.255410	-0.547397	-0.832502	-0.085425
19785	-9.550920	2.603410	-0.751699	-0.013128	-0.000934	-0.002983	0.953158	-0.513417	-0.029619	0.259546	-0.071836	-0.963055	0.795677	-0.549241	0.255406	-0.547297	-0.832571	-0.085395
19786	-9.541250	2.582920	-0.787720	0.003325	0.003046	-0.012588	0.944964	-0.509019	-0.020948	0.259419	-0.071749	-0.963096	0.795724	-0.549244	0.255253	-0.547289	-0.832576	-0.085392
19787	-9.529110	2.493020	-0.769342	0.013981	0.003650	-0.015590	0.950678	-0.507120	-0.028604	0.259331	-0.071631	-0.963128	0.795681	-0.549376	0.255103	-0.547393	-0.832500	-0.085475
19788	-9.407840	2.415450	-0.827428	0.031013	0.001319	-0.015234	0.954367	-0.507998	-0.030075	0.259230	-0.071477	-0.963167	0.795539	-0.549674	0.254905	-0.547647	-0.832316	-0.085630
19789	-9.317490	2.393550	-0.858211	0.034902	-0.002045	-0.006868	0.954529	-0.512546	-0.022492	0.259181	-0.071453	-0.963182	0.795359	-0.549973	0.254821	-0.547932	-0.832120	-0.085711
19790	-9.374180	2.418850	-0.888912	0.043893	0.000646	-0.001454	0.957457	-0.504341	-0.024713	0.259120	-0.071408	-0.963202	0.795157	-0.550316	0.254711	-0.548254	-0.831897	-0.085817
19791	-9.446290	2.471940	-0.906708	0.054132	0.007207	-0.001920	0.951723	-0.519806	-0.028536	0.259160	-0.071335	-0.963197	0.794859	-0.550772	0.254657	-0.548667	-0.831602	-0.086037
19792	-9.478490	2.599650	-0.855576	0.057197	0.001328	0.003042	0.944939	-0.521137	-0.031632	0.259173	-0.071364	-0.963191	0.794554	-0.551220	0.254637	-0.549102	-0.831302	-0.086159
19793	-9.502430	2.677150	-0.823156	0.049576	-0.014046	-0.002907	0.951219	-0.516644	-0.028136	0.259088	-0.071462	-0.963206	0.794283	-0.551639	0.254577	-0.549535	-0.831016	-0.086161
19794	-9.510840	2.803830	-0.696317	0.037129	-0.024977	-0.002779	0.945487	-0.513388	-0.020955	0.259127	-0.072002	-0.963156	0.793978	-0.551941	0.254872	-0.549956	-0.830769	-0.085855
19795	-9.522550	2.792660	-0.642042	0.015144	-0.030630	-0.008349	0.945834	-0.513967	-0.028809	0.258909	-0.072211	-0.963199	0.793910	-0.552076	0.254793	-0.550158	-0.830661	-0.085609
19796	-9.445260	2.730160	-0.600635	-0.005691	-0.028725	-0.012942	0.960161	-0.508465	-0.025400	0.258831	-0.072500	-0.963198	0.793875	-0.552082	0.254886	-0.550244	-0.830632	-0.085340
19797	-9.402150	2.585300	-0.605979	-0.016661	-0.019839	-0.010033	0.942132	-0.508888	-0.028603	0.258661	-0.072611	-0.963235	0.793986	-0.551954	0.254820	-0.550165	-0.830707	-0.085117
19798	-9.346120	2.481480	-0.681023	-0.022533	-0.004901	-0.010085	0.952610	-0.515623	-0.025150	0.258493	-0.072624	-0.963279	0.794167	-0.551745	0.254709	-0.549983	-0.830845	-0.084947
19799	-9.349250	2.446160	-0.745657	-0.008299	0.016362	-0.007347	0.951567	-0.516889	-0.019609	0.258542	-0.072449	-0.963279	0.794224	-0.551685	0.254661	-0.549876	-0.830900	-0.085093
19800	-9.424320	2.490640	-0.925827	0.006348	0.031664	-0.007137	0.943762	-0.513185	-0.020746	0.258878	-0.072168	-0.963210	0.794113	-0.551793	0.254773	-0.549879	-0.830853	-0.085537
19801	-9.479300	2.546220	-0.975552	0.019750	0.035881	-0.005273	0.950590	-0.504255	-0.022145	0.259053	-0.071842	-0.963187	0.794010	-0.551965	0.254722	-0.549945	-0.830767	-0.085945
19802	-9.481900	2.587890	-0.937027	0.015389	0.028904	-0.007272	0.948842	-0.513136	-0.015791	0.259245	-0.071478	-0.963163	0.793904	-0.552145	0.254663	-0.550008	-0.830679	-0.086394
19803	-9.445260	2.523650	-0.943817	0.002771	0.011000	-0.012883	0.955063	-0.510668	-0.024874	0.259223	-0.071315	-0.963181	0.793914	-0.552181	0.254552	-0.550004	-0.830668	-0.086520
19804	-9.502310	2.522060	-0.876635	-0.012646	-0.005061	-0.017817	0.961914	-0.507589	-0.027075	0.259175	-0.071175	-0.963204	0.793986	-0.552129	0.254442	-0.549923	-0.830715	-0.086586
19805	-9.579480	2.482660	-0.842828	-0.020302	-0.007679	-0.024976	0.946834	-0.518619	-0.028111	0.258956	-0.071100	-0.963269	0.794153	-0.551983	0.254235	-0.549784	-0.830819	-0.086475
19806	-9.537730	2.409550	-0.823853	-0.016909	-0.008513	-0.022442	0.948319	-0.517285	-0.030233	0.258731	-0.071192	-0.963323	0.794302	-0.551824	0.254116	-0.549675	-0.830917	-0.086226
19807	-9.476030	2.373950	-0.770403	-0.018014	-0.007088	-0.020498	0.959913	-0.504778	-0.025276	0.258550	-0.071137	-0.963375	0.794446	-0.551693	0.253950	-0.549553	-0.831008	-0.086126
19808	-9.487860	2.387790	-0.814408	0.002686	-0.006962	-0.018722	0.956055	-0.512561	-0.026478	0.258322	-0.071196	-0.963432	0.794497	-0.551691	0.253795	-0.549586	-0.831004	-0.085949
19809	-9.498220	2.405970	-0.778029	0.019024	-0.006592	-0.014714	0.947456	-0.503860	-0.025413	0.258189	-0.071170	-0.963469	0.794422	-0.551864	0.253654	-0.549756	-0.830892	-0.085946
19810	-9.477220	2.472500	-0.759838	0.019104	-0.003149	-0.006349	0.956497	-0.515470	-0.022235	0.258080	-0.071181	-0.963498	0.794352	-0.552010	0.253554	-0.549908	-0.830794	-0.085920
19811	-9.434740	2.504460	-0.733015	0.014594	-0.000975	0.004053	0.953827	-0.512195	-0.024297	0.258126	-0.071212	-0.963483	0.794254	-0.552132	0.253597	-0.550029	-0.830710	-0.085960
19812	-9.404850	2.522370	-0.734485	0.002198	-0.002932	0.007102	0.944791	-0.508271	-0.025430	0.258273	-0.071293	-0.963438	0.794183	-0.552160	0.253759	-0.550063	-0.830685	-0.085988
19813	-9.476960	2.576430	-0.750288	-0.009640	-0.005561	0.003684	0.960185	-0.508145	-0.026435	0.258292	-0.071360	-0.963428	0.794218	-0.552081	0.253819	-0.550003	-0.830731	-0.085923
19814	-9.526680	2.521620	-0.782382	-0.010133	-0.010266	-0.006383	0.948738	-0.510818	-0.027954	0.258125	-0.071430	-0.963467	0.794319	-0.551977	0.253731	-0.549936	-0.830794	-0.085741
19815	-9.464760	2.512750	-0.826780	-0.002964	0.002257	-0.022809	0.951313	-0.515461	-0.018393	0.257976	-0.071285	-0.963518	0.794386	-0.551973	0.253529	-0.549909	-0.830809	-0.085768
19816	-9.432680	2.485700	-0.871006	0.011120	0.011021	-0.020361	0.942056	-0.507231	-0.022254	0.258035	-0.071138	-0.963513	0.794297	-0.552122	0.253483	-0.550009	-0.830723	-0.085962
19817	-9.435930	2.448840	-0.937377	0.016715	0.021864	-0.024242	0.954778	-0.512051	-0.022105	0.257984	-0.070823	-0.963550	0.794259	-0.552283	0.253252	-0.550088	-0.830643	-0.086228
19818	-9.429230	2.468960	-0.933829	0.022957	0.020955	-0.023699	0.952746	-0.509400	-0.016628	0.258021	-0.070510	-0.963563	0.794138	-0.552533	0.253085	-0.550245	-0.830503	-0.086571
19819	-9.466470	2.529690	-0.931683	0.029153	0.018285	-0.021842	0.950861	-0.511643	-0.020450	0.257970	-0.070237	-0.963596	0.794025	-0.552795	0.252867	-0.550432	-0.830352	-0.086835
19820	-9.490910	2.502390	-0.909703	0.028470	0.006447	-0.015664	0.942658	-0.514290	-0.026575	0.258032	-0.069986	-0.963598	0.793853	-0.553096	0.252748	-0.550651	-0.830173	-0.087158
19821	-9.516780	2.548550	-0.860867	0.023015	-0.006409	-0.008958	0.952852	-0.509998	-0.023529	0.257948	-0.069988	-0.963620	0.793740	-0.553299	0.252660	-0.550853	-0.830037	-0.087170
19822	-9.543980	2.461540	-0.803712	0.014120	-0.012900	-0.010233	0.951476	-0.509651	-0.030381	0.257927	-0.070227	-0.963609	0.793595	-0.553463	0.252756	-0.551072	-0.829908	-0.087021
19823	-9.503300	2.462450	-0.758887	0.003665	-0.020989	-0.009952	0.949387	-0.505457	-0.022126	0.257757	-0.070346	-0.963646	0.793591	-0.553505	0.252676	-0.551158	-0.829870	-0.086844
19824	-9.461100	2.390650	-0.739511	0.004801	-0.013429	-0.008982	0.964377	-0.511713	-0.027393	0.257566	-0.070507	-0.963685	0.793594	-0.553533	0.252605	-0.551242	-0.829837	-0.086617
19825	-9.499690	2.448320	-0.815480	0.011297	0.003463	-0.012094	0.953938	-0.513027	-0.031275	0.257513	-0.070412	-0.963706	0.793554	-0.553640	0.252498	-0.551325	-0.829774	-0.086694
19826	-9.447480	2.459610	-0.825552	0.013069	0.013798	-0.009229	0.958484	-0.502936	-0.027267	0.257434	-0.070435	-0.963725	0.793532	-0.553698	0.252439	-0.551393	-0.829734	-0.086648
19827	-9.450450	2.527290	-0.882353	0.011874	0.011701	-0.004659	0.953855	-0.506657	-0.026547	0.257484	-0.070314	-0.963721	0.793470	-0.553804	0.252403	-0.551460	-0.829673	-0.086804
19828	-9.400950	2.581770	-0.850494	0.011558	0.006665	-0.002225	0.954514	-0.504209	-0.021766	0.257312	-0.070256	-0.963771	0.793502	-0.553839	0.252225	-0.551494	-0.829655	-0.086761
19829	-9.394010	2.603760	-0.845131	0.008406	0.001777	-0.008789	0.948717	-0.507480	-0.025196	0.257273	-0.070194	-0.963786	0.793470	-0.553918	0.252151	-0.551558	-0.829607	-0.086811
19830	-9.470770	2.565020	-0.812221	0.005165	-0.006634	-0.012726	0.953636	-0.513030	-0.026162	0.257097	-0.070164	-0.963835	0.793490	-0.553964	0.251986	-0.551611	-0.829579	-0.086748
19831	-9.488300	2.560630	-0.781565	0.004678	-0.011351	-0.022787	0.951009	-0.512804	-0.030843	0.256874	-0.070134	-0.963897	0.793515	-0.554023	0.251779	-0.551679	-0.829542	-0.086662
19832	-9.548400	2.523540	-0.777316	0.013365	-0.020890	-0.019167	0.954411	-0.515824	-0.029010	0.256667	-0.070464	-0.963928	0.793443	-0.554125	0.251779	-0.551878	-0.829445	-0.086316
19833	-9.526380	2.516470	-0.783194	0.019425	-0.021544	-0.020130	0.946403	-0.511153	-0.016414	0.256409	-0.070535	-0.963991	0.793380	-0.554304	0.251587	-0.552090	-0.829320	-0.086168
19834	-9.521290	2.506700	-0.760000	0.032476	-0.007812	-0.018378	0.956766	-0.513163	-0.023727	0.256428	-0.070614	-0.963980	0.793149	-0.554623	0.251613	-0.552413	-0.829100	-0.086213
19835	-9.432350	2.454270	-0.774267	0.027163	0.008127	-0.015243	0.950220	-0.506307	-0.029088	0.256374	-0.070467	-0.964006	0.793029	-0.554862	0.251463	-0.552610	-0.828953	-0.086370
19836	-9.364480	2.437860	-0.798541	0.014144	0.019600	-0.006961	0.953553	-0.504148	-0.023066	0.256437	-0.070403	-0.963994	0.792952	-0.554970	0.251468	-0.552691	-0.828886	-0.086489
19837	-9.346100	2.470170	-0.847414	0.002971	0.028714	-0.005579	0.944131	-0.515507	-0.026233	0.256573	-0.070138	-0.963976	0.792941	-0.555001	0.251432	-0.552643	-0.828887	-0.086783
19838	-9.391390	2.505440	-0.932679	0.001542	0.032398	-0.007968	0.950411	-0.514024	-0.020941	0.256785	-0.069972	-0.963932	0.792891	-0.555037	0.251511	-0.552616	-0.828878	-0.087045
19839	-9.428050	2.464510	-0.939982	0.000638	0.026347	-0.008738	0.950691	-0.509917	-0.024393	0.256884	-0.069711	-0.963925	0.792901	-0.555051	0.251448	-0.552556	-0.828890	-0.087310
19840	-9.514560	2.471490	-0.970188	-0.005240	0.010532	-0.013394	0.951188	-0.504906	-0.026574	0.256989	-0.069671	-0.963900	0.792889	-0.555039	0.251513	-0.552525	-0.828902	-0.087398
19841	-9.577290	2.477660	-0.925363	0.001508	-0.009090	-0.014132	0.956403	-0.509476	-0.013550	0.256851	-0.069674	-0.963936	0.792908	-0.555064	0.251399	-0.552562	-0.828885	-0.087324
19842	-9.596120	2.443350	-0.877593	-0.001403	-0.019763	-0.013734	0.955003	-0.508223	-0.019133	0.256667	-0.069692	-0.963984	0.792952	-0.555065	0.251258	-0.552584	-0.828882	-0.087205
19843	-9.549820	2.436790	-0.809741	0.002539	-0.021329	-0.006675	0.951716	-0.506711	-0.029858	0.256521	-0.069837	-0.964012	0.792946	-0.555094	0.251214	-0.552661	-0.828851	-0.087016
19844	-9.508980	2.438700	-0.764431	0.004086	-0.019793	0.002757	0.950829	-0.509556	-0.017791	0.256416	-0.070085	-0.964022	0.792914	-0.555117	0.251261	-0.552754	-0.828815	-0.086770
19845	-9.513280	2.451350	-0.704752	0.001302	-0.008966	0.006335	0.950722	-0.508512	-0.028491	0.256440	-0.070200	-0.964007	0.792882	-0.555126	0.251343	-0.552790	-0.828799	-0.086696
19846	-9.501900	2.462190	-0.756497	-0.010874	-0.002135	0.002807	0.956470	-0.504445	-0.021597	0.256527	-0.070304	-0.963977	0.792893	-0.555048	0.251480	-0.552734	-0.828842	-0.086641
19847	-9.457890	2.421800	-0.754432	-0.022802	-0.001021	-0.004748	0.959766	-0.509414	-0.029150	0.256508	-0.070293	-0.963983	0.793022	-0.554865	0.251477	-0.552558	-0.828965	-0.086584
19848	-9.477790	2.383510	-0.788997	-0.019206	0.014253	-0.015554	0.955738	-0.502456	-0.022244	0.256358	-0.070110	-0.964036	0.793215	-0.554682	0.251272	-0.552350	-0.829104	-0.086585
19849	-9.435450	2.336840	-0.869574	-0.008839	0.018895	-0.024197	0.953296	-0.506962	-0.020325	0.256293	-0.069826	-0.964074	0.793317	-0.554628	0.251069	-0.552233	-0.829164	-0.086753
19850	-9.397450	2.301870	-0.892516	0.013639	0.022178	-0.023775	0.955717	-0.500573	-0.020459	0.256187	-0.069416	-0.964132	0.793332	-0.554754	0.250744	-0.552261	-0.829114	-0.087051
19851	-9.379370	2.332790	-0.941599	0.024543	0.026014	-0.016906	0.957000	-0.502079	-0.023954	0.256219	-0.069112	-0.964145	0.793231	-0.554971	0.250581	-0.552391	-0.828994	-0.087372
19852	-9.467620	2.412100	-0.947369	0.027768	0.018150	-0.009111	0.956544	-0.502710	-0.025710	0.256092	-0.068793	-0.964201	0.793179	-0.555183	0.250279	-0.552526	-0.828879	-0.087612
19853	-9.514800	2.494100	-0.908969	0.031695	0.007597	-0.004955	0.959198	-0.506321	-0.021710	0.256116	-0.068707	-0.964201	0.793008	-0.555452	0.250223	-0.552759	-0.828705	-0.087775
19854	-9.569040	2.553680	-0.875510	0.036098	-0.007160	-0.004631	0.947736	-0.503586	-0.023678	0.255922	-0.068728	-0.964251	0.792877	-0.555719	0.250047	-0.553038	-0.828525	-0.087727
19855	-9.566630	2.587960	-0.810715	0.023877	-0.018375	-0.002982	0.950163	-0.507609	-0.021414	0.255817	-0.068868	-0.964269	0.792744	-0.555921	0.250016	-0.553276	-0.828377	-0.087619
19856	-9.563780	2.519250	-0.753986	0.017591	-0.019241	-0.002214	0.955954	-0.516802	-0.013507	0.255731	-0.069083	-0.964277	0.792620	-0.556085	0.250046	-0.553494	-0.828249	-0.087452
19857	-9.525640	2.485880	-0.773839	0.006829	-0.008814	-0.010130	0.947235	-0.509596	-0.021319	0.255622	-0.069104	-0.964304	0.792600	-0.556151	0.249962	-0.553572	-0.828203	-0.087393
19858	-9.408140	2.421490	-0.771696	0.008245	-0.005210	-0.014509	0.955316	-0.503736	-0.025069	0.255744	-0.069093	-0.964272	0.792479	-0.556289	0.250041	-0.553690	-0.828112	-0.087512
19859	-9.333490	2.453160	-0.885736	0.015693	0.004979	-0.015635	0.953138	-0.510888	-0.024015	0.255670	-0.068970	-0.964301	0.792423	-0.556433	0.249897	-0.553804	-0.828025	-0.087610
19860	-9.403230	2.461920	-0.945555	0.027644	0.012922	-0.016164	0.956291	-0.507231	-0.023301	0.255596	-0.068877	-0.964327	0.792309	-0.556656	0.249761	-0.554002	-0.827883	-0.087708
19861	-9.481750	2.520430	-0.986912	0.039704	0.017151	-0.023538	0.958951	-0.504600	-0.021676	0.255527	-0.068609	-0.964365	0.792140	-0.557004	0.249520	-0.554274	-0.827671	-0.087981
19862	-9.537080	2.444770	-0.947352	0.041135	0.013469	-0.021143	0.953314	-0.507717	-0.018504	0.255380	-0.068388	-0.964419	0.791995	-0.557335	0.249243	-0.554550	-0.827466	-0.088169
19863	-9.512290	2.472110	-0.892593	0.035187	0.010397	-0.027028	0.960624	-0.509740	-0.016329	0.255245	-0.068157	-0.964471	0.791860	-0.557647	0.248972	-0.554804	-0.827275	-0.088366
19864	-9.540030	2.486510	-0.828247	0.035176	0.001401	-0.029918	0.953891	-0.507122	-0.024855	0.255116	-0.067928	-0.964521	0.791715	-0.557973	0.248705	-0.555071	-0.827074	-0.088569
19865	-9.532560	2.510660	-0.742709	0.038286	0.004593	-0.033030	0.960178	-0.504108	-0.020967	0.254903	-0.067710	-0.964593	0.791578	-0.558315	0.248373	-0.555364	-0.826861	-0.088718
19866	-9.458340	2.514640	-0.760677	0.050443	0.005059	-0.036258	0.952655	-0.498244	-0.026159	0.254594	-0.067538	-0.964687	0.791408	-0.558731	0.247980	-0.555748	-0.826595	-0.088799
19867	-9.467400	2.457710	-0.752137	0.066298	0.009742	-0.039393	0.958648	-0.502909	-0.015593	0.254358	-0.067243	-0.964770	0.791131	-0.559308	0.247562	-0.556250	-0.826228	-0.089066
19868	-9.494710	2.393010	-0.795173	0.087019	0.011697	-0.038908	0.951109	-0.502592	-0.017411	0.254008	-0.066911	-0.964885	0.790788	-0.560034	0.247013	-0.556896	-0.825763	-0.089341
19869	-9.516230	2.320770	-0.815875	0.108872	0.004953	-0.033568	0.956920	-0.504023	-0.012544	0.253791	-0.066687	-0.964957	0.790259	-0.560958	0.246612	-0.557746	-0.825154	-0.089666
19870	-9.552300	2.306760	-0.838861	0.120890	-0.017875	-0.027587	0.964327	-0.503906	-0.018576	0.253540	-0.066611	-0.965029	0.789628	-0.562004	0.246249	-0.558753	-0.824448	-0.089893
19871	-9.585960	2.353520	-0.894110	0.117956	-0.021315	-0.022949	0.964799	-0.499742	-0.018614	0.253261	-0.066662	-0.965099	0.789019	-0.562994	0.245941	-0.559740	-0.823768	-0.089987
19872	-9.502350	2.441090	-0.938969	0.135076	-0.027327	-0.018387	0.957745	-0.504903	-0.018748	0.252818	-0.066724	-0.965210	0.788390	-0.564067	0.245497	-0.560824	-0.823029	-0.090002
19873	-9.390410	2.516000	-0.969027	0.139276	-0.025593	-0.023430	0.955303	-0.509657	-0.016848	0.252509	-0.066806	-0.965285	0.787660	-0.565232	0.245163	-0.561988	-0.822223	-0.090106
19874	-9.289740	2.581110	-0.947388	0.141140	-0.017238	-0.017787	0.956997	-0.508227	-0.015790	0.252355	-0.066955	-0.965315	0.786874	-0.566399	0.244992	-0.563157	-0.821407	-0.090249
19875	-9.333450	2.648410	-0.968407	0.132079	-0.014531	-0.017673	0.955120	-0.510177	-0.020578	0.252155	-0.066978	-0.965366	0.786166	-0.567498	0.244721	-0.564235	-0.820646	-0.090441
19876	-9.348660	2.703710	-0.974162	0.111021	-0.014265	-0.011498	0.951108	-0.499422	-0.016165	0.252104	-0.067210	-0.965363	0.785513	-0.568408	0.244710	-0.565167	-0.819997	-0.090503
19877	-9.378620	2.684250	-0.973694	0.077492	-0.012226	-0.006444	0.958986	-0.497381	-0.021586	0.252005	-0.067280	-0.965384	0.785083	-0.569050	0.244598	-0.565808	-0.819546	-0.090583
19878	-9.412930	2.678490	-0.913763	0.032420	-0.018637	-0.008777	0.952830	-0.494629	-0.018838	0.251711	-0.067444	-0.965449	0.784956	-0.569299	0.244423	-0.566115	-0.819359	-0.090358
19879	-9.420010	2.630540	-0.820029	-0.009181	-0.022342	-0.011223	0.953870	-0.505312	-0.020369	0.251517	-0.067570	-0.965491	0.785028	-0.569234	0.244343	-0.566100	-0.819395	-0.090128
19880	-9.503650	2.568740	-0.789244	-0.054438	-0.019542	-0.023212	0.954784	-0.504296	-0.016645	0.251160	-0.067719	-0.965574	0.785404	-0.568782	0.244186	-0.565738	-0.819695	-0.089668
19881	-9.520380	2.461190	-0.763704	-0.072389	-0.007110	-0.028324	0.952149	-0.506580	-0.020233	0.250916	-0.067623	-0.965644	0.785877	-0.568210	0.243996	-0.565188	-0.820100	-0.089429
19882	-9.578090	2.350470	-0.782446	-0.089384	0.005893	-0.027212	0.953070	-0.502309	-0.017807	0.250831	-0.067579	-0.965669	0.786405	-0.567486	0.243981	-0.564491	-0.820605	-0.089198
19883	-9.599140	2.280790	-0.797935	-0.100322	0.009258	-0.018899	0.949983	-0.507939	-0.022793	0.250755	-0.067404	-0.965701	0.787011	-0.566676	0.243908	-0.563680	-0.821179	-0.089049
19884	-9.632590	2.196360	-0.842271	-0.100337	0.018262	-0.016051	0.952796	-0.504912	-0.015021	0.250833	-0.067363	-0.965684	0.787561	-0.565856	0.244039	-0.562877	-0.821748	-0.088883
19885	-9.538340	2.108080	-0.815645	-0.094922	0.023832	-0.016028	0.954629	-0.498913	-0.026666	0.250861	-0.067085	-0.965696	0.788128	-0.565087	0.243989	-0.562070	-0.822299	-0.088887
19886	-9.488640	2.084580	-0.889064	-0.097738	0.025659	-0.015360	0.955204	-0.502050	-0.013379	0.250895	-0.066918	-0.965699	0.788696	-0.564285	0.244010	-0.561258	-0.822863	-0.088799
19887	-9.518590	2.090830	-0.985131	-0.084994	0.018160	-0.018240	0.952166	-0.503004	-0.023497	0.250873	-0.066675	-0.965721	0.789211	-0.563599	0.243931	-0.560543	-0.823353	-0.088772
19888	-9.535980	2.112320	-1.052880	-0.067347	0.018717	-0.015964	0.955563	-0.503320	-0.021763	0.250922	-0.066494	-0.965721	0.789595	-0.563062	0.243929	-0.559981	-0.823735	-0.088781
19889	-9.561100	2.189630	-1.020700	-0.050864	0.008197	-0.011973	0.955059	-0.506377	-0.019489	0.250894	-0.066369	-0.965737	0.789902	-0.562652	0.243880	-0.559560	-0.824026	-0.088741
19890	-9.517950	2.252860	-1.010140	-0.035681	-0.000655	0.003420	0.959620	-0.507412	-0.013367	0.250997	-0.066519	-0.965700	0.790057	-0.562347	0.244080	-0.559295	-0.824221	-0.088594
19891	-9.493860	2.387580	-0.944089	-0.014133	-0.014123	0.012534	0.954082	-0.512592	-0.017858	0.251038	-0.066716	-0.965675	0.790097	-0.562223	0.244237	-0.559220	-0.824290	-0.088427
19892	-9.426390	2.452570	-0.858770	-0.006516	-0.022176	0.018135	0.959429	-0.500698	-0.020578	0.251302	-0.067041	-0.965584	0.790020	-0.562156	0.244641	-0.559209	-0.824310	-0.088307
19893	-9.383980	2.487410	-0.829722	-0.009581	-0.023614	0.019935	0.960857	-0.501576	-0.017903	0.251350	-0.067358	-0.965550	0.790016	-0.562064	0.244866	-0.559194	-0.824346	-0.088061
19894	-9.446180	2.496340	-0.782515	-0.015014	-0.020180	0.011791	0.959870	-0.500862	-0.017870	0.251291	-0.067558	-0.965551	0.790091	-0.561925	0.244943	-0.559115	-0.824425	-0.087830
19895	-9.523550	2.454150	-0.828059	-0.025660	-0.011807	0.006673	0.953888	-0.499142	-0.028120	0.251300	-0.067703	-0.965539	0.790209	-0.561710	0.245054	-0.558943	-0.824560	-0.087658
19896	-9.549820	2.394190	-0.866387	-0.036747	-0.006462	0.001183	0.951848	-0.502737	-0.020508	0.251194	-0.067819	-0.965558	0.790426	-0.561401	0.245064	-0.558685	-0.824760	-0.087415
19897	-9.563590	2.349040	-0.876635	-0.038597	-0.004067	-0.002913	0.946231	-0.495044	-0.023353	0.251170	-0.067846	-0.965562	0.790641	-0.561085	0.245093	-0.558391	-0.824973	-0.087286
19898	-9.444260	2.317090	-0.890595	-0.042932	0.006924	0.000866	0.952356	-0.498906	-0.023719	0.251217	-0.067855	-0.965549	0.790852	-0.560753	0.245171	-0.558071	-0.825198	-0.087208
19899	-9.415900	2.330360	-0.973334	-0.025470	0.016723	0.004496	0.952887	-0.506456	-0.024104	0.251367	-0.067752	-0.965518	0.790975	-0.560540	0.245260	-0.557828	-0.825351	-0.087311
19900	-9.424900	2.406380	-1.053190	-0.005972	0.023903	0.002749	0.952089	-0.502508	-0.019991	0.251541	-0.067691	-0.965476	0.790977	-0.560489	0.245374	-0.557748	-0.825391	-0.087444
19901	-9.512180	2.383510	-1.067500	0.013050	0.026299	0.001948	0.956759	-0.503870	-0.021224	0.251725	-0.067496	-0.965442	0.790891	-0.560595	0.245406	-0.557786	-0.825335	-0.087734
19902	-9.561770	2.405850	-0.996934	0.027502	0.018414	0.000313	0.950204	-0.501527	-0.024364	0.251881	-0.067380	-0.965410	0.790715	-0.560827	0.245444	-0.557966	-0.825187	-0.087983
19903	-9.582010	2.312220	-0.918892	0.039559	0.004632	-0.001832	0.956316	-0.505700	-0.023284	0.251914	-0.067343	-0.965404	0.790491	-0.561155	0.245416	-0.558268	-0.824967	-0.088129
19904	-9.530750	2.269040	-0.814172	0.039728	-0.015369	-0.004747	0.961476	-0.505538	-0.025903	0.251807	-0.067579	-0.965415	0.790257	-0.561481	0.245424	-0.558647	-0.824726	-0.087980
19905	-9.519650	2.252950	-0.767743	0.042778	-0.033692	-0.010964	0.961679	-0.504445	-0.023650	0.251553	-0.067807	-0.965465	0.790038	-0.561841	0.245305	-0.559071	-0.824462	-0.087763
19906	-9.500740	2.289430	-0.731264	0.034613	-0.033931	-0.012969	0.957988	-0.501329	-0.023054	0.251204	-0.068127	-0.965534	0.789891	-0.562106	0.245169	-0.559435	-0.824254	-0.087390
19907	-9.523960	2.426620	-0.729897	0.029108	-0.034020	-0.007486	0.963526	-0.500610	-0.017816	0.250976	-0.068379	-0.965575	0.789740	-0.562351	0.245096	-0.559751	-0.824067	-0.087135
19908	-9.532230	2.506510	-0.725425	0.023223	-0.024622	-0.002154	0.958234	-0.502043	-0.023830	0.250758	-0.068529	-0.965621	0.789640	-0.562542	0.244981	-0.559990	-0.823924	-0.086949
19909	-9.531410	2.536070	-0.741050	0.027270	-0.011865	-0.007177	0.961141	-0.504611	-0.021242	0.250655	-0.068599	-0.965643	0.789498	-0.562771	0.244912	-0.560236	-0.823762	-0.086903
19910	-9.470390	2.497340	-0.769568	0.042322	0.001053	-0.012186	0.954761	-0.502040	-0.019486	0.250539	-0.068567	-0.965675	0.789300	-0.563114	0.244762	-0.560567	-0.823530	-0.086962
19911	-9.347970	2.420960	-0.827547	0.055201	0.009580	-0.006531	0.955002	-0.505555	-0.017473	0.250561	-0.068464	-0.965677	0.789000	-0.563572	0.244675	-0.560980	-0.823225	-0.087191
19912	-9.344630	2.377410	-0.871524	0.061917	0.013484	0.004050	0.959122	-0.505175	-0.014710	0.250754	-0.068379	-0.965633	0.788617	-0.564083	0.244731	-0.561431	-0.822882	-0.087521
19913	-9.390200	2.411850	-0.956816	0.064504	0.010133	0.003205	0.954267	-0.505351	-0.016249	0.250857	-0.068326	-0.965610	0.788240	-0.564611	0.244729	-0.561915	-0.822524	-0.087779
19914	-9.427590	2.474320	-0.955142	0.060374	0.002877	0.002765	0.958181	-0.501077	-0.017931	0.251016	-0.068274	-0.965572	0.787869	-0.565108	0.244777	-0.562364	-0.822187	-0.088060
19915	-9.441240	2.562090	-0.976781	0.043692	-0.006132	0.003870	0.954609	-0.510689	-0.021415	0.251033	-0.068359	-0.965562	0.787606	-0.565464	0.244800	-0.562725	-0.821935	-0.088110
19916	-9.563910	2.637140	-0.920908	0.025231	-0.009247	-0.001777	0.958408	-0.501151	-0.016466	0.251035	-0.068502	-0.965551	0.787445	-0.565662	0.244861	-0.562949	-0.821787	-0.088059
19917	-9.598110	2.631460	-0.860221	0.007290	-0.014839	-0.012555	0.952374	-0.502879	-0.021531	0.250875	-0.068566	-0.965588	0.787428	-0.565730	0.244758	-0.563044	-0.821735	-0.087937
19918	-9.580190	2.504570	-0.798818	-0.010731	-0.014927	-0.017835	0.958069	-0.507494	-0.026355	0.250661	-0.068611	-0.965640	0.787524	-0.565657	0.244617	-0.563005	-0.821781	-0.087756
19919	-9.520130	2.410470	-0.711055	-0.019460	-0.005448	-0.021518	0.949588	-0.498552	-0.015981	0.250483	-0.068547	-0.965691	0.787680	-0.565512	0.244451	-0.562866	-0.821887	-0.087658
19920	-9.438620	2.306300	-0.711804	-0.022704	-0.006633	-0.010240	0.962403	-0.502480	-0.023851	0.250394	-0.068638	-0.965708	0.787811	-0.565331	0.244449	-0.562723	-0.822004	-0.087481
19921	-9.412760	2.258130	-0.759513	-0.036293	-0.003439	0.001570	0.954302	-0.503689	-0.020348	0.250408	-0.068689	-0.965701	0.788004	-0.565031	0.244521	-0.562446	-0.822206	-0.087361
19922	-9.342230	2.305040	-0.814458	-0.043603	0.000639	0.023591	0.954499	-0.503628	-0.016903	0.250578	-0.068894	-0.965642	0.788189	-0.564645	0.244814	-0.562111	-0.822453	-0.087186
19923	-9.379450	2.395740	-0.907130	-0.048177	-0.000633	0.036617	0.962637	-0.507731	-0.021879	0.250884	-0.069119	-0.965546	0.788361	-0.564223	0.245235	-0.561734	-0.822724	-0.087064
19924	-9.495770	2.492270	-0.924319	-0.050422	-0.008526	0.038954	0.959576	-0.501800	-0.014247	0.251203	-0.069433	-0.965441	0.788536	-0.563768	0.245718	-0.561345	-0.823010	-0.086870
19925	-9.630300	2.555500	-0.894039	-0.042781	-0.014825	0.021271	0.956513	-0.505331	-0.022036	0.251309	-0.069689	-0.965395	0.788715	-0.563400	0.245986	-0.561046	-0.823240	-0.086623
19926	-9.643840	2.511410	-0.903701	-0.021193	-0.006773	0.000501	0.951858	-0.496952	-0.023856	0.251307	-0.069698	-0.965395	0.788834	-0.563225	0.246008	-0.560880	-0.823359	-0.086562
19927	-9.603030	2.380060	-0.850553	-0.013042	-0.006529	-0.019462	0.954454	-0.502025	-0.015541	0.251138	-0.069655	-0.965442	0.788948	-0.563130	0.245856	-0.560795	-0.823427	-0.086469
19928	-9.512360	2.199740	-0.773572	-0.018004	0.001684	-0.028557	0.952035	-0.497713	-0.018783	0.250906	-0.069445	-0.965517	0.789118	-0.563021	0.245561	-0.560660	-0.823520	-0.086465
19929	-9.515470	2.161710	-0.837959	-0.022673	0.014914	-0.029129	0.956045	-0.505492	-0.023799	0.250781	-0.069172	-0.965569	0.789311	-0.562854	0.245325	-0.560444	-0.823657	-0.086555
19930	-9.504890	2.168990	-0.890983	-0.016421	0.005033	-0.031442	0.954323	-0.496837	-0.025829	0.250568	-0.068976	-0.965639	0.789471	-0.562748	0.245052	-0.560314	-0.823746	-0.086552
19931	-9.451060	2.239940	-0.933492	-0.016889	0.000242	-0.019509	0.956994	-0.499623	-0.023750	0.250436	-0.068877	-0.965680	0.789607	-0.562622	0.244903	-0.560181	-0.823840	-0.086515
19932	-9.413930	2.309670	-0.945504	-0.018500	-0.004871	-0.004321	0.960447	-0.495725	-0.027903	0.250270	-0.068946	-0.965718	0.789736	-0.562476	0.244821	-0.560073	-0.823934	-0.086322
19933	-9.408190	2.436440	-0.930552	-0.020441	-0.007759	0.017511	0.952031	-0.499219	-0.018158	0.250385	-0.069122	-0.965676	0.789800	-0.562295	0.245032	-0.559931	-0.824043	-0.086198
19934	-9.451670	2.454000	-0.832838	-0.029613	-0.021088	0.031035	0.952274	-0.501695	-0.017777	0.250418	-0.069465	-0.965643	0.789906	-0.562040	0.245275	-0.559768	-0.824188	-0.085874
19935	-9.505040	2.492620	-0.698236	-0.029750	-0.028110	0.036323	0.952354	-0.507321	-0.022694	0.250568	-0.069914	-0.965571	0.789974	-0.561769	0.245676	-0.559604	-0.824335	-0.085531
19936	-9.680770	2.552860	-0.709978	-0.012543	-0.030567	0.027219	0.957832	-0.504103	-0.013881	0.250717	-0.070337	-0.965502	0.789940	-0.561655	0.246045	-0.559585	-0.824376	-0.085254
19937	-9.710270	2.536030	-0.705673	0.005441	-0.021431	-0.008580	0.955971	-0.505470	-0.020828	0.250550	-0.070479	-0.965535	0.789924	-0.561705	0.245982	-0.559682	-0.824330	-0.085062
19938	-9.557640	2.373850	-0.771104	0.005408	-0.003395	-0.024809	0.962802	-0.507942	-0.019661	0.250432	-0.070279	-0.965580	0.789937	-0.561781	0.245767	-0.559717	-0.824295	-0.085172
19939	-9.368510	2.251730	-0.834276	-0.014191	0.021941	-0.019905	0.958516	-0.511020	-0.026489	0.250419	-0.069999	-0.965604	0.790059	-0.561678	0.245611	-0.559551	-0.824390	-0.085351
19940	-9.364400	2.237620	-0.894736	-0.024581	0.033568	-0.015163	0.953562	-0.499401	-0.024482	0.250571	-0.069703	-0.965586	0.790219	-0.561460	0.245594	-0.559256	-0.824563	-0.085605
19941	-9.400890	2.329500	-0.909954	-0.027206	0.035156	-0.012986	0.958259	-0.506371	-0.026015	0.250686	-0.069354	-0.965581	0.790396	-0.561244	0.245516	-0.558954	-0.824739	-0.085879
19942	-9.396620	2.449650	-0.979178	-0.020658	0.030287	-0.006782	0.951785	-0.500713	-0.017735	0.250782	-0.069146	-0.965571	0.790525	-0.561071	0.245497	-0.558729	-0.824874	-0.086045
19943	-9.448810	2.570250	-0.980097	-0.011875	0.013536	0.003661	0.952349	-0.502400	-0.022703	0.250908	-0.069068	-0.965544	0.790575	-0.560970	0.245568	-0.558602	-0.824950	-0.086149
19944	-9.474640	2.618470	-0.931216	-0.022940	0.000856	0.003416	0.953988	-0.498942	-0.018585	0.250992	-0.069070	-0.965522	0.790672	-0.560795	0.245656	-0.558427	-0.825069	-0.086143
19945	-9.508120	2.588630	-0.772075	-0.026083	-0.023856	0.003432	0.960084	-0.508386	-0.015332	0.250907	-0.069300	-0.965527	0.790802	-0.560577	0.245737	-0.558282	-0.825198	-0.085850
19946	-9.519490	2.578610	-0.716417	-0.038647	-0.025600	-0.006000	0.962485	-0.501053	-0.015406	0.250802	-0.069385	-0.965549	0.791019	-0.560274	0.245730	-0.558021	-0.825396	-0.085633
19947	-9.521990	2.517490	-0.680114	-0.029426	-0.019523	-0.012722	0.952264	-0.505679	-0.017008	0.250615	-0.069487	-0.965590	0.791207	-0.560039	0.245657	-0.557838	-0.825547	-0.085375
19948	-9.487390	2.418440	-0.746765	-0.012082	-0.005958	-0.013250	0.951098	-0.500479	-0.023113	0.250571	-0.069339	-0.965612	0.791294	-0.559964	0.245547	-0.557734	-0.825610	-0.085443
19949	-9.492260	2.321810	-0.777455	0.001022	0.004083	-0.007402	0.955319	-0.498933	-0.028850	0.250558	-0.069276	-0.965620	0.791300	-0.559978	0.245500	-0.557733	-0.825606	-0.085488
19950	-9.370840	2.350070	-0.826200	0.001251	0.005572	0.003768	0.960506	-0.502149	-0.013546	0.250574	-0.069319	-0.965612	0.791283	-0.559985	0.245536	-0.557749	-0.825598	-0.085467
19951	-9.410680	2.378570	-0.886239	-0.001201	-0.003866	0.016876	0.957042	-0.498371	-0.030007	0.250708	-0.069458	-0.965568	0.791240	-0.559964	0.245725	-0.557750	-0.825601	-0.085430
19952	-9.409210	2.410780	-0.902104	-0.005693	-0.010663	0.024384	0.956936	-0.497054	-0.022590	0.250806	-0.069630	-0.965530	0.791227	-0.559901	0.245907	-0.557723	-0.825629	-0.085333
19953	-9.491740	2.485330	-0.881916	-0.009400	-0.005864	0.016198	0.952322	-0.508422	-0.020791	0.250923	-0.069781	-0.965489	0.791232	-0.559812	0.246096	-0.557665	-0.825676	-0.085256
19954	-9.543870	2.473110	-0.872239	0.011458	-0.005806	-0.002494	0.959791	-0.498085	-0.016731	0.250910	-0.069808	-0.965490	0.791159	-0.559917	0.246090	-0.557773	-0.825603	-0.085260
19955	-9.583700	2.474530	-0.834950	0.028067	-0.000274	-0.011931	0.955019	-0.506624	-0.022138	0.250836	-0.069756	-0.965513	0.791025	-0.560157	0.245975	-0.557997	-0.825444	-0.085329
19956	-9.523820	2.405160	-0.847530	0.044575	-0.000013	-0.017409	0.957796	-0.503257	-0.030006	0.250732	-0.069584	-0.965553	0.790816	-0.560548	0.245754	-0.558339	-0.825193	-0.085519
19957	-9.460310	2.401200	-0.812926	0.050302	0.001572	-0.011725	0.958405	-0.505759	-0.019380	0.250669	-0.069517	-0.965574	0.790557	-0.560972	0.245621	-0.558734	-0.824911	-0.085661
19958	-9.448910	2.385010	-0.769096	0.037008	0.000753	-0.005220	0.956097	-0.497512	-0.013602	0.250636	-0.069544	-0.965580	0.790362	-0.561266	0.245579	-0.559026	-0.824709	-0.085709
19959	-9.492330	2.454740	-0.788262	0.026559	-0.000139	-0.000705	0.958029	-0.503816	-0.028335	0.250652	-0.069553	-0.965576	0.790207	-0.561485	0.245573	-0.559237	-0.824558	-0.085776
19960	-9.526670	2.474380	-0.826260	0.013850	0.000092	-0.001980	0.950384	-0.497201	-0.024664	0.250622	-0.069504	-0.965587	0.790142	-0.561605	0.245510	-0.559342	-0.824481	-0.085833
19961	-9.494990	2.418870	-0.852814	0.011424	-0.007563	-0.001165	0.951833	-0.499992	-0.022592	0.250592	-0.069571	-0.965590	0.790074	-0.561700	0.245513	-0.559453	-0.824410	-0.085792
19962	-9.422090	2.366650	-0.835400	0.002830	-0.010848	0.007445	0.959662	-0.500129	-0.023962	0.250561	-0.069737	-0.965586	0.790036	-0.561726	0.245577	-0.559520	-0.824379	-0.085652
19963	-9.408330	2.412800	-0.822683	0.002577	-0.014118	0.008580	0.956436	-0.501099	-0.019892	0.250571	-0.069913	-0.965570	0.789992	-0.561741	0.245681	-0.559577	-0.824354	-0.085525
19964	-9.407140	2.444040	-0.838139	0.000327	-0.013011	0.013772	0.950590	-0.499078	-0.021809	0.250572	-0.070070	-0.965559	0.789971	-0.561732	0.245770	-0.559606	-0.824347	-0.085401
19965	-9.399990	2.468350	-0.831113	-0.006466	-0.011428	0.019687	0.951533	-0.501941	-0.018513	0.250684	-0.070287	-0.965514	0.789951	-0.561665	0.245989	-0.559585	-0.824374	-0.085278
19966	-9.409520	2.490870	-0.793976	-0.011404	-0.012241	0.029699	0.956467	-0.497219	-0.024296	0.250890	-0.070532	-0.965443	0.789916	-0.561576	0.246302	-0.559542	-0.824413	-0.085180
19967	-9.529320	2.495330	-0.761089	-0.010349	-0.006410	0.020972	0.958450	-0.509532	-0.022459	0.251041	-0.070713	-0.965390	0.789914	-0.561476	0.246537	-0.559477	-0.824466	-0.085096
19968	-9.711120	2.561320	-0.798066	-0.003576	0.001025	0.006942	0.953972	-0.493716	-0.021437	0.251092	-0.070758	-0.965374	0.789923	-0.561432	0.246608	-0.559441	-0.824492	-0.085078
19969	-9.652030	2.463150	-0.793191	0.000242	0.003286	-0.012117	0.960061	-0.503208	-0.016974	0.251035	-0.070674	-0.965394	0.789945	-0.561443	0.246514	-0.559436	-0.824492	-0.085113
19970	-9.554750	2.330980	-0.809155	0.003003	-0.000285	-0.022447	0.955769	-0.498082	-0.026552	0.250813	-0.070436	-0.965470	0.790003	-0.561502	0.246194	-0.559454	-0.824472	-0.085187
19971	-9.479140	2.233650	-0.834506	0.004478	0.006804	-0.018498	0.956922	-0.498853	-0.020965	0.250726	-0.070287	-0.965503	0.790017	-0.561552	0.246035	-0.559473	-0.824451	-0.085268
19972	-9.422920	2.232350	-0.903017	0.004404	0.012296	-0.012987	0.953598	-0.505713	-0.025531	0.250612	-0.070094	-0.965547	0.790056	-0.561587	0.245831	-0.559469	-0.824444	-0.085362
19973	-9.453620	2.183340	-0.885921	0.003669	0.013245	-0.008036	0.958670	-0.509904	-0.019578	0.250642	-0.069950	-0.965549	0.790048	-0.561623	0.245772	-0.559466	-0.824431	-0.085503
19974	-9.418760	2.218440	-0.963486	0.002547	0.003903	0.003334	0.958233	-0.504720	-0.025177	0.250780	-0.070004	-0.965510	0.789993	-0.561639	0.245913	-0.559482	-0.824416	-0.085545
19975	-9.474180	2.248560	-0.912852	0.006024	-0.002389	0.000357	0.952622	-0.504232	-0.025712	0.250790	-0.070037	-0.965505	0.789951	-0.561688	0.245934	-0.559537	-0.824379	-0.085540
19976	-9.572970	2.349030	-0.880002	0.018159	-0.012674	0.006543	0.953379	-0.512341	-0.024902	0.250777	-0.070264	-0.965491	0.789830	-0.561813	0.246037	-0.559713	-0.824275	-0.085393
19977	-9.546640	2.409950	-0.839117	0.029393	-0.020000	0.003869	0.954475	-0.505117	-0.018151	0.250716	-0.070462	-0.965493	0.789649	-0.562052	0.246072	-0.559996	-0.824095	-0.085275
19978	-9.545170	2.548870	-0.765733	0.028472	-0.018809	0.007313	0.952014	-0.502965	-0.017578	0.250794	-0.070724	-0.965454	0.789423	-0.562289	0.246257	-0.560280	-0.823911	-0.085188
19979	-9.563160	2.649900	-0.726521	0.023368	-0.017612	0.003514	0.957395	-0.503639	-0.018276	0.250744	-0.070900	-0.965454	0.789276	-0.562479	0.246294	-0.560510	-0.823766	-0.085078
19980	-9.520920	2.683220	-0.699133	0.013649	-0.010443	0.005946	0.960918	-0.503935	-0.026312	0.250797	-0.070957	-0.965436	0.789159	-0.562616	0.246356	-0.560650	-0.823668	-0.085106
19981	-9.438910	2.580910	-0.701295	0.001189	0.002068	0.006402	0.957989	-0.499469	-0.027823	0.250880	-0.070987	-0.965412	0.789129	-0.562621	0.246440	-0.560655	-0.823662	-0.085133
19982	-9.348380	2.453500	-0.820634	0.000897	0.006050	0.011724	0.955505	-0.500657	-0.023999	0.250911	-0.071056	-0.965399	0.789136	-0.562583	0.246507	-0.560632	-0.823682	-0.085085
19983	-9.287820	2.386980	-0.832786	0.002784	0.005410	0.014498	0.957625	-0.501464	-0.017648	0.251076	-0.071104	-0.965352	0.789077	-0.562595	0.246667	-0.560642	-0.823669	-0.085147
19984	-9.329670	2.355200	-0.860078	0.007581	0.008202	0.012638	0.957368	-0.502023	-0.016206	0.251200	-0.071061	-0.965323	0.789010	-0.562657	0.246738	-0.560679	-0.823631	-0.085271
19985	-9.437600	2.398230	-0.898620	0.005353	0.011077	0.005525	0.956178	-0.496184	-0.020313	0.251326	-0.071012	-0.965294	0.788959	-0.562697	0.246810	-0.560695	-0.823607	-0.085395
19986	-9.569440	2.415460	-0.912678	-0.002553	0.005102	-0.000469	0.952099	-0.507120	-0.021917	0.251316	-0.070857	-0.965308	0.788987	-0.562700	0.246716	-0.560661	-0.823619	-0.085510
19987	-9.590590	2.425460	-0.824413	-0.011787	-0.000954	-0.004715	0.956741	-0.505343	-0.022744	0.251294	-0.070849	-0.965314	0.789057	-0.562607	0.246702	-0.560571	-0.823683	-0.085476
19988	-9.624540	2.419940	-0.763781	-0.017365	-0.004539	-0.007564	0.954319	-0.504023	-0.024909	0.251263	-0.070894	-0.965319	0.789151	-0.562469	0.246717	-0.560453	-0.823774	-0.085381
19989	-9.559800	2.447450	-0.744030	-0.015223	-0.001910	-0.005925	0.943950	-0.509266	-0.014562	0.251225	-0.070887	-0.965329	0.789244	-0.562348	0.246694	-0.560338	-0.823857	-0.085329
19990	-9.475960	2.404650	-0.779621	-0.004696	0.002472	-0.002106	0.956914	-0.500894	-0.019091	0.251352	-0.070898	-0.965296	0.789212	-0.562346	0.246804	-0.560328	-0.823857	-0.085393
19991	-9.488600	2.389440	-0.808178	0.000848	0.004303	0.002065	0.953823	-0.512273	-0.021438	0.251413	-0.070884	-0.965281	0.789194	-0.562352	0.246846	-0.560325	-0.823854	-0.085441
19992	-9.439870	2.337050	-0.865539	0.002324	0.011394	0.006010	0.961370	-0.508846	-0.020669	0.251596	-0.070835	-0.965237	0.789137	-0.562380	0.246965	-0.560323	-0.823839	-0.085595
19993	-9.433740	2.330610	-0.843817	0.005963	0.003094	0.016848	0.952504	-0.503479	-0.016579	0.251768	-0.070914	-0.965186	0.789054	-0.562417	0.247146	-0.560364	-0.823807	-0.085643
19994	-9.475610	2.299020	-0.870552	0.009437	-0.003201	0.013874	0.960884	-0.505111	-0.021928	0.251922	-0.070987	-0.965141	0.788944	-0.562502	0.247303	-0.560449	-0.823743	-0.085702
19995	-9.548180	2.352770	-0.886909	0.013283	-0.009977	0.013915	0.954053	-0.502630	-0.023345	0.251996	-0.071157	-0.965108	0.788827	-0.562602	0.247449	-0.560580	-0.823660	-0.085643
19996	-9.537440	2.441900	-0.833151	0.013643	-0.010449	0.005949	0.954952	-0.493980	-0.020432	0.251960	-0.071282	-0.965109	0.788750	-0.562697	0.247478	-0.560705	-0.823584	-0.085554
19997	-9.469360	2.427250	-0.854993	0.019105	-0.012121	0.001783	0.953043	-0.501767	-0.021354	0.251927	-0.071402	-0.965109	0.788631	-0.562854	0.247502	-0.560887	-0.823467	-0.085488
19998	-9.447200	2.500450	-0.756595	0.025671	-0.006222	-0.001456	0.950309	-0.503228	-0.017067	0.251807	-0.071378	-0.965142	0.788519	-0.563069	0.247368	-0.561098	-0.823322	-0.085502
19999	-9.433520	2.545480	-0.745575	0.023595	0.003664	-0.002879	0.951421	-0.508647	-0.025407	0.251826	-0.071341	-0.965139	0.788387	-0.563266	0.247343	-0.561276	-0.823190	-0.085600
20000	-9.474600	2.675930	-0.798903	0.028473	0.009958	0.003596	0.956141	-0.503572	-0.014322	0.251978	-0.071327	-0.965101	0.788180	-0.563515	0.247433	-0.561497	-0.823021	-0.085775
20001	-9.531450	2.700840	-0.830508	0.031059	0.006608	0.002745	0.956756	-0.504808	-0.023180	0.252057	-0.071298	-0.965082	0.787991	-0.563769	0.247455	-0.561727	-0.822849	-0.085920
20002	-9.444730	2.693930	-0.803288	0.029000	-0.001523	0.006589	0.953653	-0.508771	-0.027093	0.252120	-0.071307	-0.965065	0.787806	-0.564015	0.247486	-0.561959	-0.822680	-0.086023
20003	-9.431920	2.576460	-0.766282	0.011614	-0.007816	0.011334	0.955299	-0.510510	-0.021778	0.252186	-0.071445	-0.965038	0.787705	-0.564103	0.247607	-0.562071	-0.822608	-0.085981
20004	-9.402210	2.461770	-0.758482	-0.005855	-0.008607	0.010600	0.952355	-0.505600	-0.022530	0.252276	-0.071699	-0.964995	0.787687	-0.564029	0.247830	-0.562055	-0.822636	-0.085815
20005	-9.388400	2.374650	-0.737165	-0.017199	-0.006529	0.006255	0.954496	-0.508302	-0.017505	0.252309	-0.071798	-0.964979	0.787761	-0.563884	0.247928	-0.561937	-0.822727	-0.085713
20006	-9.406830	2.367230	-0.787498	-0.025820	0.008222	-0.001380	0.960188	-0.507468	-0.023499	0.252406	-0.071746	-0.964958	0.787881	-0.563685	0.247999	-0.561725	-0.822868	-0.085750
20007	-9.460650	2.349140	-0.859657	-0.037132	0.021061	-0.004191	0.956820	-0.508286	-0.026764	0.252512	-0.071559	-0.964944	0.788092	-0.563383	0.248013	-0.561381	-0.823091	-0.085866
20008	-9.541290	2.481990	-0.875247	-0.034699	0.019705	-0.007873	0.956695	-0.504570	-0.018260	0.252549	-0.071433	-0.964944	0.788318	-0.563071	0.248005	-0.561047	-0.823316	-0.085891
20009	-9.636920	2.538620	-0.885762	-0.032348	0.023853	-0.017032	0.959590	-0.503457	-0.015727	0.252569	-0.071152	-0.964959	0.788535	-0.562817	0.247891	-0.560733	-0.823514	-0.086045
20010	-9.587170	2.489250	-0.862585	-0.020826	0.012536	-0.025020	0.962076	-0.507752	-0.017400	0.252458	-0.070822	-0.965013	0.788715	-0.562678	0.247631	-0.560529	-0.823637	-0.086194
20011	-9.500050	2.376840	-0.842916	-0.012952	0.007749	-0.020563	0.953238	-0.507250	-0.013831	0.252360	-0.070653	-0.965051	0.788832	-0.562587	0.247467	-0.560409	-0.823714	-0.086241
20012	-9.449150	2.358120	-0.835701	-0.007140	0.003834	-0.009407	0.954034	-0.505244	-0.019343	0.252396	-0.070507	-0.965052	0.788865	-0.562563	0.247418	-0.560347	-0.823743	-0.086368
20013	-9.433370	2.330060	-0.849376	0.002396	0.005899	0.000503	0.942095	-0.507950	-0.020127	0.252454	-0.070471	-0.965039	0.788842	-0.562583	0.247443	-0.560352	-0.823732	-0.086435
20014	-9.459580	2.403250	-0.898553	0.016034	0.004457	0.009319	0.953590	-0.501594	-0.023553	0.252658	-0.070547	-0.964980	0.788669	-0.562742	0.247635	-0.560505	-0.823617	-0.086543
20015	-9.468270	2.454640	-0.879875	0.023399	-0.006867	0.016050	0.950441	-0.502006	-0.025318	0.252767	-0.070703	-0.964940	0.788489	-0.562924	0.247793	-0.560708	-0.823479	-0.086540
20016	-9.499700	2.510930	-0.853293	0.028490	-0.008059	0.008870	0.963112	-0.510007	-0.020682	0.252749	-0.070879	-0.964932	0.788319	-0.563135	0.247853	-0.560955	-0.823319	-0.086456
20017	-9.456330	2.441180	-0.834443	0.030635	-0.014436	0.007649	0.956220	-0.504291	-0.018512	0.252750	-0.071052	-0.964919	0.788120	-0.563383	0.247924	-0.561234	-0.823135	-0.086398
20018	-9.432150	2.441430	-0.760610	0.016880	-0.009248	-0.005321	0.955559	-0.508236	-0.022643	0.252676	-0.071085	-0.964936	0.788040	-0.563520	0.247868	-0.561380	-0.823039	-0.086370
20019	-9.447240	2.364760	-0.755207	0.008701	-0.000475	-0.015443	0.955482	-0.499342	-0.019741	0.252573	-0.071012	-0.964968	0.788023	-0.563603	0.247734	-0.561451	-0.822988	-0.086392
20020	-9.478760	2.339940	-0.834734	0.007324	0.006700	-0.020495	0.960659	-0.509823	-0.019747	0.252436	-0.070847	-0.965016	0.788040	-0.563671	0.247524	-0.561488	-0.822956	-0.086460
20021	-9.535090	2.393010	-0.882492	0.006436	0.009649	-0.018376	0.954523	-0.499283	-0.020750	0.252367	-0.070674	-0.965047	0.788043	-0.563738	0.247364	-0.561516	-0.822925	-0.086574
20022	-9.544830	2.466730	-0.962357	0.014085	0.012358	-0.011244	0.956964	-0.505011	-0.018336	0.252344	-0.070503	-0.965066	0.787998	-0.563855	0.247237	-0.561588	-0.822859	-0.086729
20023	-9.485770	2.501570	-0.967069	0.016428	0.005741	0.000027	0.952449	-0.507273	-0.026827	0.252397	-0.070466	-0.965055	0.787898	-0.563991	0.247245	-0.561704	-0.822769	-0.086830
20024	-9.504650	2.572740	-0.912684	0.013721	-0.006933	0.014298	0.961662	-0.500766	-0.024159	0.252489	-0.070672	-0.965015	0.787776	-0.564082	0.247426	-0.561834	-0.822689	-0.086751
20025	-9.518700	2.606940	-0.818151	0.011360	-0.011079	0.012477	0.963115	-0.513504	-0.018934	0.252546	-0.070844	-0.964988	0.787674	-0.564167	0.247559	-0.561953	-0.822616	-0.086676
20026	-9.469460	2.530190	-0.775952	0.003863	-0.015782	0.008177	0.949261	-0.501359	-0.028250	0.252506	-0.071033	-0.964984	0.787652	-0.564166	0.247633	-0.562002	-0.822600	-0.086506
20027	-9.381740	2.420670	-0.754159	-0.006702	-0.012912	0.008537	0.952620	-0.511037	-0.020641	0.252522	-0.071198	-0.964968	0.787660	-0.564105	0.247743	-0.561983	-0.822627	-0.086369
20028	-9.403330	2.322870	-0.753625	-0.022011	-0.000317	-0.000015	0.954065	-0.500653	-0.022766	0.252543	-0.071311	-0.964954	0.787767	-0.563912	0.247844	-0.561823	-0.822751	-0.086236
20029	-9.479940	2.309290	-0.817908	-0.032455	0.018576	-0.013075	0.955738	-0.503037	-0.018963	0.252565	-0.071095	-0.964964	0.787975	-0.563654	0.247769	-0.561521	-0.822945	-0.086339
20030	-9.512340	2.254550	-0.881684	-0.026602	0.027186	-0.023669	0.948616	-0.497528	-0.017310	0.252500	-0.070725	-0.965009	0.788195	-0.563451	0.247531	-0.561242	-0.823117	-0.086526
20031	-9.511570	2.282770	-0.900370	-0.020395	0.024554	-0.021799	0.950435	-0.512022	-0.020258	0.252486	-0.070411	-0.965035	0.788357	-0.563299	0.247361	-0.561020	-0.823248	-0.086716
20032	-9.560910	2.358740	-0.943247	-0.010785	0.021127	-0.017393	0.955523	-0.506689	-0.018700	0.252537	-0.070161	-0.965040	0.788422	-0.563248	0.247268	-0.560906	-0.823304	-0.086925
20033	-9.478130	2.418570	-0.972292	-0.003748	0.012036	-0.004014	0.961331	-0.504885	-0.015109	0.252594	-0.070049	-0.965033	0.788446	-0.563221	0.247255	-0.560847	-0.823332	-0.087036
20034	-9.528230	2.466080	-0.997181	-0.000923	0.001194	0.003442	0.960076	-0.503541	-0.012851	0.252667	-0.070016	-0.965017	0.788432	-0.563222	0.247297	-0.560834	-0.823334	-0.087105
20035	-9.508650	2.504720	-0.962539	0.005972	-0.014908	0.011129	0.959465	-0.508018	-0.020912	0.252692	-0.070212	-0.964996	0.788363	-0.563264	0.247422	-0.560920	-0.823288	-0.086980
20036	-9.530800	2.485890	-0.855730	0.008018	-0.026547	0.013876	0.952606	-0.501658	-0.021881	0.252682	-0.070457	-0.964981	0.788280	-0.563327	0.247544	-0.561041	-0.823224	-0.086803
20037	-9.541920	2.476640	-0.801062	0.011478	-0.023832	0.002784	0.947490	-0.506361	-0.021460	0.252591	-0.070679	-0.964988	0.788200	-0.563421	0.247583	-0.561193	-0.823141	-0.086606
20038	-9.520410	2.441400	-0.790447	0.012307	-0.010519	-0.003275	0.945322	-0.504258	-0.024558	0.252534	-0.070800	-0.964994	0.788119	-0.563530	0.247592	-0.561333	-0.823056	-0.086511
20039	-9.461470	2.342740	-0.784774	0.009041	-0.002706	-0.011102	0.953306	-0.499536	-0.020547	0.252452	-0.070770	-0.965018	0.788089	-0.563613	0.247500	-0.561413	-0.823002	-0.086512
20040	-9.383550	2.306470	-0.843531	0.005699	0.010606	-0.013426	0.959911	-0.506672	-0.018888	0.252403	-0.070656	-0.965039	0.788082	-0.563671	0.247389	-0.561444	-0.822972	-0.086590
20041	-9.422850	2.362480	-0.921651	0.005766	0.014114	-0.016072	0.950359	-0.500380	-0.018446	0.252376	-0.070459	-0.965061	0.788083	-0.563731	0.247252	-0.561456	-0.822948	-0.086745
20042	-9.399290	2.386330	-0.947470	0.003549	0.016981	-0.012205	0.956564	-0.510903	-0.022102	0.252391	-0.070229	-0.965074	0.788086	-0.563779	0.247131	-0.561443	-0.822935	-0.086946
20043	-9.421010	2.420710	-0.958083	0.003974	0.009248	-0.002388	0.956274	-0.507113	-0.019708	0.252445	-0.070149	-0.965065	0.788063	-0.563814	0.247127	-0.561453	-0.822917	-0.087050
20044	-9.460580	2.423200	-0.921008	0.001853	-0.002391	0.004099	0.956080	-0.503176	-0.024880	0.252525	-0.070252	-0.965037	0.788019	-0.563821	0.247248	-0.561478	-0.822904	-0.087019
20045	-9.554590	2.486390	-0.849096	0.012099	-0.012032	0.007526	0.955242	-0.505851	-0.015982	0.252537	-0.070404	-0.965022	0.787924	-0.563916	0.247333	-0.561605	-0.822826	-0.086937
20046	-9.596370	2.562390	-0.785972	0.019044	-0.015616	0.004448	0.960458	-0.500971	-0.024703	0.252492	-0.070572	-0.965022	0.787804	-0.564066	0.247374	-0.561794	-0.822709	-0.086826
20047	-9.553180	2.625860	-0.774921	0.018164	-0.021675	0.003710	0.954671	-0.496960	-0.013320	0.252421	-0.070781	-0.965025	0.787685	-0.564213	0.247417	-0.561993	-0.822589	-0.086666
20048	-9.504160	2.548240	-0.732224	0.016090	-0.020800	-0.000573	0.964301	-0.502187	-0.020073	0.252233	-0.070880	-0.965067	0.787629	-0.564342	0.247305	-0.562156	-0.822493	-0.086519
20049	-9.380270	2.478100	-0.706513	0.000709	-0.011719	-0.006479	0.963056	-0.506020	-0.017115	0.252136	-0.070949	-0.965087	0.787633	-0.564353	0.247264	-0.562193	-0.822479	-0.086412
20050	-9.371410	2.427260	-0.724861	-0.014373	0.002385	-0.003866	0.963535	-0.496600	-0.019549	0.252087	-0.070844	-0.965108	0.787752	-0.564224	0.247179	-0.562049	-0.822576	-0.086426
20051	-9.456330	2.385660	-0.876172	-0.016652	0.021516	-0.003949	0.952688	-0.505303	-0.026992	0.252197	-0.070655	-0.965093	0.787848	-0.564091	0.247177	-0.561865	-0.822684	-0.086597
20052	-9.473660	2.407570	-0.945670	-0.005580	0.025186	-0.006587	0.958752	-0.504955	-0.023476	0.252213	-0.070416	-0.965106	0.787936	-0.564018	0.247065	-0.561735	-0.822755	-0.086770
20053	-9.457770	2.379120	-0.961078	0.004393	0.021284	-0.010146	0.952441	-0.505845	-0.025565	0.252273	-0.070193	-0.965107	0.787929	-0.564062	0.246984	-0.561717	-0.822744	-0.086990
20054	-9.423460	2.358650	-0.925149	0.007221	0.010445	-0.002685	0.949011	-0.504673	-0.024816	0.252301	-0.070173	-0.965101	0.787908	-0.564088	0.246994	-0.561734	-0.822728	-0.087030
20055	-9.470960	2.307950	-0.877325	0.003062	0.001436	-0.001804	0.956446	-0.507919	-0.013400	0.252315	-0.070161	-0.965098	0.787888	-0.564115	0.246995	-0.561756	-0.822710	-0.087055
20056	-9.531190	2.375880	-0.865703	0.000053	-0.007253	0.006803	0.954134	-0.499184	-0.026415	0.252392	-0.070293	-0.965068	0.787841	-0.564122	0.247131	-0.561788	-0.822694	-0.087001
20057	-9.568780	2.438840	-0.860805	0.002567	-0.014108	-0.002381	0.950007	-0.496614	-0.010687	0.252314	-0.070405	-0.965081	0.787825	-0.564145	0.247128	-0.561845	-0.822668	-0.086875
20058	-9.625690	2.571770	-0.800886	0.006517	-0.015621	-0.006302	0.959749	-0.506613	-0.024293	0.252139	-0.070453	-0.965123	0.787809	-0.564222	0.247004	-0.561946	-0.822611	-0.086759
20059	-9.580700	2.560650	-0.814712	0.013001	-0.013229	-0.017876	0.953632	-0.500717	-0.025540	0.251944	-0.070471	-0.965173	0.787773	-0.564342	0.246842	-0.562083	-0.822528	-0.086667
20060	-9.502520	2.498930	-0.774902	0.020187	-0.004537	-0.019240	0.952479	-0.513642	-0.026245	0.251728	-0.070463	-0.965229	0.787737	-0.564479	0.246646	-0.562231	-0.822435	-0.086589
20061	-9.404120	2.396660	-0.807373	0.025606	0.001046	-0.019224	0.955288	-0.502177	-0.020729	0.251602	-0.070356	-0.965270	0.787634	-0.564704	0.246460	-0.562431	-0.822289	-0.086666
20062	-9.388570	2.367350	-0.821546	0.028930	0.005755	-0.011188	0.953907	-0.504090	-0.026233	0.251597	-0.070344	-0.965272	0.787487	-0.564923	0.246427	-0.562639	-0.822140	-0.086738
20063	-9.419750	2.343030	-0.902174	0.026074	0.014842	-0.006348	0.960449	-0.506267	-0.021134	0.251651	-0.070197	-0.965269	0.787350	-0.565142	0.246364	-0.562808	-0.822002	-0.086949
20064	-9.394990	2.397880	-0.944948	0.024617	0.007752	0.000699	0.950385	-0.507793	-0.016209	0.251691	-0.070204	-0.965258	0.787224	-0.565309	0.246384	-0.562966	-0.821887	-0.087017
20065	-9.448230	2.488840	-0.928994	0.006020	0.006634	0.014194	0.959206	-0.501397	-0.020643	0.251860	-0.070240	-0.965211	0.787147	-0.565348	0.246538	-0.562997	-0.821856	-0.087100
20066	-9.506760	2.562930	-0.837136	-0.011959	-0.000721	0.004753	0.951147	-0.507171	-0.018600	0.251931	-0.070281	-0.965190	0.787186	-0.565255	0.246629	-0.562911	-0.821917	-0.087081
20067	-9.575010	2.577570	-0.813963	-0.018166	-0.007117	-0.010949	0.957288	-0.503248	-0.022966	0.251825	-0.070288	-0.965217	0.787308	-0.565114	0.246561	-0.562788	-0.822014	-0.086971
20068	-9.546040	2.593570	-0.814871	-0.003157	-0.004968	-0.028488	0.956019	-0.509426	-0.017210	0.251603	-0.070213	-0.965280	0.787389	-0.565099	0.246339	-0.562775	-0.822030	-0.086895
20069	-9.427150	2.425260	-0.820616	0.011376	0.001419	-0.031239	0.958410	-0.503893	-0.015196	0.251384	-0.070036	-0.965350	0.787396	-0.565214	0.246050	-0.562862	-0.821966	-0.086940
20070	-9.355780	2.340270	-0.787457	0.017880	0.003826	-0.020852	0.951586	-0.500148	-0.017299	0.251315	-0.069871	-0.965380	0.787320	-0.565393	0.245882	-0.562999	-0.821857	-0.087081
20071	-9.425780	2.347950	-0.846477	0.009915	0.003349	-0.010362	0.955466	-0.498496	-0.015702	0.251272	-0.069795	-0.965397	0.787283	-0.565482	0.245796	-0.563070	-0.821802	-0.087141
20072	-9.460190	2.367230	-0.884465	-0.002405	0.003108	0.002355	0.951608	-0.501310	-0.018342	0.251312	-0.069740	-0.965390	0.787277	-0.565490	0.245796	-0.563061	-0.821801	-0.087210
20073	-9.485080	2.445870	-0.852470	-0.012662	0.001987	0.008376	0.962601	-0.502221	-0.018489	0.251409	-0.069781	-0.965362	0.787320	-0.565381	0.245910	-0.562957	-0.821873	-0.087202
20074	-9.548760	2.448600	-0.887822	-0.024508	-0.002493	0.006306	0.947763	-0.503065	-0.022629	0.251441	-0.069821	-0.965351	0.787443	-0.565180	0.245980	-0.562771	-0.822008	-0.087130
20075	-9.558870	2.469220	-0.851056	-0.020259	-0.007997	-0.002929	0.963606	-0.500598	-0.021564	0.251393	-0.069880	-0.965359	0.787557	-0.565016	0.245991	-0.562633	-0.822116	-0.087006
20076	-9.531610	2.425980	-0.818231	-0.010717	-0.004170	-0.016307	0.957177	-0.505940	-0.013623	0.251219	-0.069856	-0.965406	0.787671	-0.564920	0.245846	-0.562551	-0.822184	-0.086895
20077	-9.441210	2.404510	-0.848121	0.002177	0.006124	-0.022974	0.953315	-0.502297	-0.018139	0.251092	-0.069686	-0.965452	0.787709	-0.564954	0.245644	-0.562554	-0.822174	-0.086963
20078	-9.460110	2.394270	-0.899982	0.015381	0.012438	-0.023975	0.950404	-0.504984	-0.018331	0.251036	-0.069425	-0.965485	0.787650	-0.565128	0.245434	-0.562662	-0.822077	-0.087185
20079	-9.523400	2.424030	-0.954197	0.023698	0.010700	-0.019143	0.953133	-0.508286	-0.020192	0.250965	-0.069239	-0.965517	0.787558	-0.565336	0.245250	-0.562823	-0.821949	-0.087350
20080	-9.482610	2.425350	-0.912051	0.020327	0.002489	-0.013548	0.955798	-0.500891	-0.021002	0.250965	-0.069207	-0.965519	0.787437	-0.565521	0.245213	-0.562992	-0.821825	-0.087429
20081	-9.473650	2.482610	-0.842532	0.015194	-0.008831	-0.006571	0.952358	-0.506477	-0.017431	0.250883	-0.069253	-0.965537	0.787361	-0.565651	0.245158	-0.563135	-0.821732	-0.087385
20082	-9.480690	2.459120	-0.847417	0.005052	-0.013711	-0.007372	0.956293	-0.497111	-0.023250	0.250790	-0.069358	-0.965554	0.787332	-0.565700	0.245135	-0.563216	-0.821689	-0.087264
20083	-9.519710	2.490710	-0.825701	0.004708	-0.011485	-0.011713	0.958421	-0.493152	-0.019355	0.250653	-0.069397	-0.965586	0.787328	-0.565747	0.245040	-0.563283	-0.821653	-0.087169
20084	-9.458770	2.451820	-0.852975	0.007206	-0.009336	-0.018042	0.953095	-0.494976	-0.022463	0.250362	-0.069346	-0.965666	0.787372	-0.565804	0.244768	-0.563351	-0.821619	-0.087055
20085	-9.373600	2.413300	-0.807424	0.014319	-0.004141	-0.016762	0.954732	-0.498752	-0.015560	0.250226	-0.069295	-0.965704	0.787326	-0.565934	0.244616	-0.563475	-0.821533	-0.087053
20086	-9.387480	2.366330	-0.819083	0.011237	0.003432	-0.012111	0.953555	-0.496842	-0.019393	0.250121	-0.069179	-0.965740	0.787297	-0.566045	0.244453	-0.563563	-0.821467	-0.087115
20087	-9.444810	2.389770	-0.849684	0.008366	0.001757	-0.008798	0.953915	-0.498854	-0.027568	0.250081	-0.069125	-0.965754	0.787265	-0.566120	0.244382	-0.563626	-0.821419	-0.087156
20088	-9.586290	2.455530	-0.844525	0.004746	0.001029	-0.011516	0.956213	-0.505165	-0.014185	0.249949	-0.069098	-0.965790	0.787291	-0.566137	0.244257	-0.563647	-0.821410	-0.087105
20089	-9.653870	2.499110	-0.838545	-0.000019	-0.010780	-0.012498	0.959166	-0.493840	-0.020162	0.249809	-0.069126	-0.965825	0.787316	-0.566146	0.244158	-0.563675	-0.821402	-0.087004
20090	-9.591360	2.465860	-0.785118	-0.010686	-0.002440	-0.017627	0.964387	-0.502390	-0.024466	0.249656	-0.069013	-0.965872	0.787414	-0.566088	0.243977	-0.563606	-0.821451	-0.086985
20091	-9.520210	2.406680	-0.848641	-0.013064	0.002418	-0.016598	0.964355	-0.507008	-0.020316	0.249558	-0.068910	-0.965905	0.787522	-0.565992	0.243849	-0.563498	-0.821526	-0.086980
20092	-9.488690	2.349600	-0.875133	-0.005810	0.005613	-0.023464	0.946770	-0.505879	-0.020247	0.249395	-0.068768	-0.965957	0.787641	-0.565914	0.243645	-0.563404	-0.821591	-0.086972
20093	-9.370580	2.285710	-0.873779	0.002785	0.008905	-0.021100	0.954213	-0.508365	-0.009293	0.249298	-0.068585	-0.965995	0.787671	-0.565952	0.243460	-0.563405	-0.821580	-0.087068
20094	-9.353100	2.316670	-0.921520	0.011480	0.006705	-0.013252	0.959690	-0.499431	-0.020499	0.249396	-0.068492	-0.965977	0.787560	-0.566101	0.243471	-0.563516	-0.821486	-0.087241
20095	-9.427380	2.337120	-0.922815	0.017998	0.010864	-0.015170	0.961631	-0.502967	-0.017979	0.249357	-0.068327	-0.965998	0.787490	-0.566260	0.243331	-0.563632	-0.821390	-0.087394
20096	-9.504220	2.430750	-0.899361	0.023291	-0.001313	-0.011376	0.956270	-0.496727	-0.020905	0.249258	-0.068274	-0.966027	0.787394	-0.566449	0.243200	-0.563809	-0.821264	-0.087433
20097	-9.611580	2.476280	-0.855935	0.012781	-0.016496	-0.016709	0.952830	-0.499072	-0.018637	0.249053	-0.068325	-0.966077	0.787357	-0.566565	0.243049	-0.563952	-0.821179	-0.087308
20098	-9.564340	2.500260	-0.805925	0.004732	-0.009756	-0.024010	0.961623	-0.502742	-0.017754	0.248802	-0.068285	-0.966144	0.787389	-0.566620	0.242817	-0.564017	-0.821145	-0.087209
20099	-9.556630	2.417300	-0.807030	0.007357	-0.011347	-0.026180	0.957457	-0.501328	-0.017259	0.248552	-0.068240	-0.966212	0.787406	-0.566699	0.242579	-0.564105	-0.821094	-0.087121
20100	-9.478930	2.379980	-0.864649	0.016193	-0.004782	-0.024960	0.955781	-0.508675	-0.017191	0.248366	-0.068137	-0.966267	0.787363	-0.566854	0.242353	-0.564246	-0.820995	-0.087139
20101	-9.391110	2.268030	-0.844142	0.019131	0.000417	-0.019947	0.954287	-0.494602	-0.019905	0.248230	-0.068030	-0.966309	0.787298	-0.567026	0.242165	-0.564397	-0.820886	-0.087193
20102	-9.389780	2.326520	-0.878521	0.014284	0.004878	-0.013917	0.955339	-0.497031	-0.024673	0.248205	-0.067946	-0.966322	0.787227	-0.567159	0.242083	-0.564506	-0.820801	-0.087283
20103	-9.423560	2.375050	-0.933742	0.012195	0.004012	-0.005897	0.955324	-0.509806	-0.018747	0.248201	-0.067890	-0.966327	0.787166	-0.567263	0.242037	-0.564594	-0.820733	-0.087355
20104	-9.461460	2.437580	-0.930335	0.003968	-0.001486	0.007060	0.953802	-0.501331	-0.017339	0.248302	-0.068029	-0.966291	0.787112	-0.567270	0.242197	-0.564624	-0.820718	-0.087308
20105	-9.517940	2.437860	-0.861895	-0.002018	-0.018894	0.002343	0.957250	-0.497937	-0.021272	0.248234	-0.068208	-0.966296	0.787111	-0.567252	0.242243	-0.564656	-0.820715	-0.087123
20106	-9.605890	2.522730	-0.783170	-0.011281	-0.016002	-0.010029	0.956234	-0.499592	-0.017954	0.248089	-0.068310	-0.966326	0.787189	-0.567166	0.242191	-0.564611	-0.820766	-0.086935
20107	-9.607300	2.490910	-0.764842	-0.006650	-0.009488	-0.027030	0.956771	-0.503867	-0.020387	0.247842	-0.068245	-0.966394	0.787287	-0.567130	0.241958	-0.564583	-0.820796	-0.086830
20108	-9.544730	2.347500	-0.800013	0.002971	-0.000382	-0.033411	0.962068	-0.498169	-0.016617	0.247626	-0.068093	-0.966460	0.787335	-0.567176	0.241692	-0.564611	-0.820777	-0.086836
20109	-9.422380	2.270050	-0.856726	0.015611	0.006689	-0.027970	0.960258	-0.508053	-0.024021	0.247464	-0.067890	-0.966516	0.787309	-0.567324	0.241430	-0.564718	-0.820691	-0.086942
20110	-9.378170	2.227940	-0.856058	0.023655	0.010724	-0.019156	0.958411	-0.503919	-0.014304	0.247411	-0.067734	-0.966540	0.787219	-0.567513	0.241279	-0.564867	-0.820574	-0.087087
20111	-9.457610	2.285250	-0.897118	0.021003	0.010563	-0.015660	0.968981	-0.499333	-0.021276	0.247367	-0.067570	-0.966563	0.787132	-0.567696	0.241132	-0.565007	-0.820461	-0.087243
20112	-9.520090	2.345330	-0.968307	0.017077	0.013822	-0.013069	0.962238	-0.490293	-0.012335	0.247367	-0.067377	-0.966576	0.787067	-0.567837	0.241010	-0.565097	-0.820378	-0.087434
20113	-9.536380	2.371530	-0.956541	0.017709	0.005854	-0.012707	0.959109	-0.495858	-0.013652	0.247320	-0.067268	-0.966596	0.786992	-0.567992	0.240893	-0.565223	-0.820281	-0.087536
20114	-9.557120	2.410880	-0.885332	0.011188	-0.010828	-0.010965	0.956657	-0.498157	-0.012099	0.247151	-0.067192	-0.966644	0.786954	-0.568126	0.240699	-0.565349	-0.820194	-0.087536
20115	-9.561950	2.422290	-0.826276	0.011145	-0.012609	-0.020614	0.962328	-0.500380	-0.015825	0.246937	-0.067189	-0.966699	0.786935	-0.568232	0.240512	-0.565469	-0.820121	-0.087444
20116	-9.533240	2.437890	-0.827169	0.014719	-0.013652	-0.027545	0.950427	-0.493691	-0.023460	0.246697	-0.067109	-0.966766	0.786894	-0.568397	0.240254	-0.565630	-0.820013	-0.087415
20117	-9.470120	2.433870	-0.790479	0.022666	-0.014889	-0.025728	0.966198	-0.485293	-0.018927	0.246430	-0.067095	-0.966835	0.786823	-0.568601	0.240007	-0.565847	-0.819873	-0.087329
20118	-9.426050	2.391880	-0.787801	0.031606	-0.013794	-0.019026	0.960584	-0.493789	-0.016033	0.246105	-0.067086	-0.966919	0.786729	-0.568855	0.239710	-0.566118	-0.819697	-0.087220
20119	-9.419890	2.412950	-0.781755	0.032787	-0.011697	-0.012633	0.954303	-0.501763	-0.018494	0.245959	-0.067120	-0.966953	0.786568	-0.569133	0.239581	-0.566406	-0.819501	-0.087189
20120	-9.375440	2.372350	-0.779280	0.027651	-0.013998	-0.002805	0.958409	-0.494202	-0.017804	0.245895	-0.067229	-0.966962	0.786400	-0.569371	0.239564	-0.566666	-0.819327	-0.087137
20121	-9.421020	2.381740	-0.763789	0.004280	-0.005475	0.001756	0.961507	-0.493008	-0.012323	0.245897	-0.067294	-0.966957	0.786365	-0.569406	0.239599	-0.566715	-0.819298	-0.087098
20122	-9.523740	2.415620	-0.778590	-0.015353	0.000020	0.002221	0.959833	-0.497354	-0.013548	0.245905	-0.067251	-0.966958	0.786442	-0.569302	0.239593	-0.566604	-0.819373	-0.087106
20123	-9.577460	2.396590	-0.849667	-0.026872	0.004009	-0.004965	0.957019	-0.501616	-0.021143	0.245908	-0.067200	-0.966961	0.786599	-0.569086	0.239589	-0.566384	-0.819528	-0.087084
20124	-9.606980	2.378010	-0.847824	-0.023962	0.009183	-0.010936	0.956319	-0.499487	-0.024467	0.245925	-0.067082	-0.966965	0.786740	-0.568905	0.239556	-0.566181	-0.819663	-0.087132
20125	-9.585210	2.341970	-0.839020	-0.011778	0.013204	-0.016839	0.959733	-0.497002	-0.024792	0.245887	-0.066888	-0.966988	0.786841	-0.568820	0.239425	-0.566057	-0.819738	-0.087235
20126	-9.546670	2.307940	-0.860676	0.001849	0.011824	-0.018999	0.969888	-0.501116	-0.015113	0.245794	-0.066778	-0.967019	0.786896	-0.568802	0.239290	-0.566022	-0.819759	-0.087261
20127	-9.495670	2.289200	-0.853972	0.019331	0.001939	-0.019765	0.951575	-0.495243	-0.016998	0.245669	-0.066660	-0.967059	0.786828	-0.568974	0.239103	-0.566170	-0.819649	-0.087329
20128	-9.473280	2.282730	-0.862036	0.021790	0.000620	-0.012465	0.955989	-0.502867	-0.015641	0.245612	-0.066574	-0.967079	0.786719	-0.569173	0.238987	-0.566346	-0.819518	-0.087421
20129	-9.486060	2.265920	-0.890591	0.021742	-0.002879	-0.009809	0.959007	-0.505969	-0.021397	0.245538	-0.066552	-0.967100	0.786613	-0.569358	0.238895	-0.566525	-0.819391	-0.087448
20130	-9.473790	2.280540	-0.862242	0.004237	-0.007262	-0.007891	0.951895	-0.498909	-0.021606	0.245544	-0.066648	-0.967092	0.786572	-0.569393	0.238950	-0.566581	-0.819359	-0.087388
20131	-9.507040	2.304850	-0.818351	-0.003947	-0.009298	-0.008559	0.956676	-0.502803	-0.012222	0.245443	-0.066685	-0.967115	0.786608	-0.569367	0.238892	-0.566574	-0.819374	-0.087292
20132	-9.490560	2.306010	-0.847786	-0.003097	-0.001524	-0.020141	0.961162	-0.497151	-0.021659	0.245375	-0.066634	-0.967136	0.786632	-0.569369	0.238807	-0.566570	-0.819377	-0.087292
20133	-9.468980	2.269280	-0.838424	0.002294	0.004083	-0.020141	0.958252	-0.501575	-0.021450	0.245259	-0.066497	-0.967174	0.786661	-0.569402	0.238633	-0.566579	-0.819365	-0.087341
20134	-9.490700	2.332200	-0.865755	0.004891	0.013262	-0.020809	0.954492	-0.493294	-0.016427	0.245192	-0.066341	-0.967202	0.786681	-0.569435	0.238487	-0.566580	-0.819355	-0.087431
20135	-9.558600	2.374650	-0.861515	0.008062	0.009226	-0.017125	0.967150	-0.492150	-0.013532	0.245129	-0.066179	-0.967229	0.786671	-0.569513	0.238336	-0.566622	-0.819314	-0.087543
20136	-9.561790	2.446610	-0.838281	0.013929	0.007142	-0.007289	0.966279	-0.486722	-0.023775	0.245104	-0.066028	-0.967246	0.786609	-0.569649	0.238216	-0.566719	-0.819232	-0.087685
20137	-9.545100	2.448200	-0.868953	0.011167	-0.000056	-0.009456	0.955983	-0.491694	-0.018545	0.245049	-0.065985	-0.967263	0.786562	-0.569747	0.238137	-0.566808	-0.819167	-0.087715
20138	-9.506440	2.414940	-0.889357	0.008784	-0.007719	-0.008607	0.961121	-0.490119	-0.020115	0.244846	-0.065999	-0.967313	0.786569	-0.569806	0.237973	-0.566887	-0.819125	-0.087602
20139	-9.385430	2.389350	-0.822708	0.001759	-0.009403	-0.001557	0.959929	-0.504463	-0.017217	0.244800	-0.066077	-0.967319	0.786555	-0.569822	0.237978	-0.566925	-0.819107	-0.087519
20140	-9.425160	2.391370	-0.784538	-0.008773	-0.003093	-0.003863	0.966624	-0.490818	-0.011040	0.244774	-0.066111	-0.967324	0.786610	-0.569744	0.237985	-0.566860	-0.819159	-0.087455
20141	-9.512010	2.396630	-0.812265	-0.015988	-0.002840	-0.010623	0.955793	-0.500676	-0.020009	0.244694	-0.066084	-0.967346	0.786720	-0.569620	0.237917	-0.566742	-0.819247	-0.087393
20142	-9.546940	2.414440	-0.849647	-0.011926	0.004396	-0.021177	0.964749	-0.498219	-0.014646	0.244578	-0.065908	-0.967387	0.786828	-0.569549	0.237731	-0.566643	-0.819311	-0.087441
20143	-9.567210	2.343730	-0.866877	-0.009022	0.009571	-0.027147	0.959876	-0.491474	-0.017789	0.244438	-0.065685	-0.967438	0.786938	-0.569493	0.237498	-0.566550	-0.819367	-0.087515
20144	-9.528860	2.308790	-0.888070	-0.009613	0.008518	-0.030342	0.962554	-0.491496	-0.017040	0.244257	-0.065423	-0.967501	0.787063	-0.569441	0.237210	-0.566454	-0.819424	-0.087598
20145	-9.478840	2.258760	-0.864132	-0.000173	0.007104	-0.039738	0.958138	-0.490369	-0.015589	0.244004	-0.065149	-0.967583	0.787154	-0.569467	0.236847	-0.566437	-0.819429	-0.087670
20146	-9.469940	2.204790	-0.883899	0.013751	0.012548	-0.034723	0.955415	-0.497289	-0.009649	0.243786	-0.064819	-0.967661	0.787161	-0.569614	0.236468	-0.566521	-0.819352	-0.087841
20147	-9.492540	2.236730	-0.895277	0.019556	0.019489	-0.022060	0.956003	-0.497621	-0.017007	0.243742	-0.064544	-0.967690	0.787097	-0.569789	0.236258	-0.566628	-0.819252	-0.088080
20148	-9.553910	2.301880	-0.886215	0.023069	0.011496	-0.012705	0.961095	-0.491518	-0.016143	0.243813	-0.064389	-0.967682	0.786946	-0.570021	0.236204	-0.566808	-0.819103	-0.088308
20149	-9.534410	2.369490	-0.870433	0.018381	-0.000291	-0.002691	0.964753	-0.497760	-0.013250	0.243810	-0.064386	-0.967683	0.786841	-0.570174	0.236184	-0.566955	-0.818997	-0.088353
20150	-9.531750	2.435260	-0.823295	0.009299	-0.013651	-0.000096	0.960172	-0.495284	-0.019045	0.243759	-0.064480	-0.967690	0.786779	-0.570259	0.236185	-0.567063	-0.818931	-0.088274
20151	-9.474560	2.411170	-0.792094	0.007426	-0.011290	-0.004200	0.965564	-0.497407	-0.020071	0.243681	-0.064558	-0.967704	0.786740	-0.570323	0.236160	-0.567150	-0.818880	-0.088187
20152	-9.445400	2.428960	-0.793251	0.001999	-0.006137	-0.002704	0.961373	-0.493604	-0.018456	0.243637	-0.064642	-0.967710	0.786738	-0.570322	0.236171	-0.567172	-0.818874	-0.088095
20153	-9.482940	2.381360	-0.877502	0.009252	-0.001183	-0.010901	0.956500	-0.495332	-0.018612	0.243564	-0.064599	-0.967731	0.786705	-0.570405	0.236079	-0.567249	-0.818819	-0.088110
20154	-9.523540	2.351880	-0.823677	0.012212	0.009236	-0.020858	0.953976	-0.491474	-0.013072	0.243473	-0.064445	-0.967764	0.786678	-0.570514	0.235906	-0.567326	-0.818756	-0.088207
20155	-9.468760	2.289800	-0.858382	0.006911	0.010611	-0.026170	0.957657	-0.493375	-0.013632	0.243347	-0.064219	-0.967811	0.786696	-0.570588	0.235669	-0.567356	-0.818722	-0.088330
20156	-9.452370	2.289990	-0.889401	-0.005223	0.010065	-0.022927	0.966502	-0.500077	-0.015356	0.243277	-0.063994	-0.967843	0.786749	-0.570590	0.235485	-0.567311	-0.818738	-0.088465
20157	-9.457200	2.301300	-0.831822	-0.014159	0.007238	-0.017328	0.964923	-0.495346	-0.007800	0.243202	-0.063846	-0.967872	0.786865	-0.570486	0.235351	-0.567184	-0.818822	-0.088505
20158	-9.537660	2.328320	-0.854797	-0.014199	0.003742	-0.014671	0.953817	-0.495116	-0.017954	0.243182	-0.063698	-0.967887	0.786957	-0.570396	0.235262	-0.567064	-0.818896	-0.088582
20159	-9.554900	2.324200	-0.824885	-0.007196	0.003686	-0.020389	0.968197	-0.496894	-0.015194	0.243063	-0.063562	-0.967926	0.787040	-0.570350	0.235093	-0.567000	-0.818939	-0.088605
20160	-9.503230	2.336090	-0.834286	-0.003619	0.000945	-0.015016	0.962048	-0.498372	-0.010954	0.242999	-0.063503	-0.967946	0.787078	-0.570332	0.235010	-0.566974	-0.818956	-0.088608
20161	-9.549780	2.313590	-0.802766	0.010068	0.004844	-0.021152	0.968352	-0.492794	-0.009373	0.242880	-0.063353	-0.967985	0.787065	-0.570429	0.234818	-0.567043	-0.818900	-0.088683
20162	-9.522960	2.293840	-0.869035	0.018000	0.001886	-0.018003	0.961075	-0.488141	-0.014850	0.242820	-0.063179	-0.968012	0.786984	-0.570609	0.234652	-0.567181	-0.818788	-0.088835
20163	-9.488130	2.303050	-0.849226	0.022051	0.007424	-0.016256	0.963206	-0.500584	-0.024291	0.242754	-0.063035	-0.968038	0.786891	-0.570800	0.234497	-0.567338	-0.818666	-0.088962
20164	-9.484500	2.258390	-0.891489	0.017868	0.005662	-0.011195	0.961321	-0.495133	-0.011808	0.242707	-0.062988	-0.968053	0.786814	-0.570941	0.234417	-0.567466	-0.818572	-0.089012
20165	-9.455450	2.275380	-0.894110	0.011204	0.003455	-0.012105	0.964715	-0.493227	-0.010452	0.242652	-0.062900	-0.968072	0.786772	-0.571041	0.234311	-0.567547	-0.818508	-0.089076
20166	-9.472610	2.271540	-0.864412	0.001115	0.000259	-0.014225	0.961841	-0.495999	-0.013819	0.242604	-0.062782	-0.968092	0.786779	-0.571076	0.234202	-0.567558	-0.818493	-0.089150
20167	-9.536240	2.300890	-0.917467	0.001151	0.003754	-0.016882	0.963819	-0.488146	-0.018769	0.242513	-0.062665	-0.968122	0.786806	-0.571097	0.234060	-0.567559	-0.818487	-0.089193
20168	-9.592620	2.328630	-0.867469	-0.002428	0.006490	-0.022256	0.964037	-0.492003	-0.015069	0.242382	-0.062499	-0.968166	0.786872	-0.571088	0.233861	-0.567524	-0.818506	-0.089243
20169	-9.593100	2.326350	-0.868224	0.000636	0.009687	-0.025390	0.964482	-0.493945	-0.010535	0.242257	-0.062285	-0.968211	0.786923	-0.571110	0.233636	-0.567507	-0.818507	-0.089342
20170	-9.518810	2.332850	-0.885639	0.007568	0.002645	-0.025791	0.965958	-0.494141	-0.011275	0.242107	-0.062095	-0.968260	0.786931	-0.571195	0.233398	-0.567559	-0.818462	-0.089426
20171	-9.529790	2.350700	-0.850549	0.021766	0.000619	-0.023415	0.963348	-0.490081	-0.018931	0.241947	-0.061966	-0.968309	0.786857	-0.571389	0.233174	-0.567730	-0.818337	-0.089487
20172	-9.513480	2.350670	-0.881353	0.031076	0.002993	-0.025995	0.959434	-0.491390	-0.017595	0.241774	-0.061798	-0.968363	0.786741	-0.571657	0.232910	-0.567965	-0.818162	-0.089593
20173	-9.498190	2.290540	-0.878562	0.033589	0.006936	-0.022681	0.956494	-0.493705	-0.015566	0.241656	-0.061621	-0.968404	0.786598	-0.571947	0.232682	-0.568213	-0.817973	-0.089743
20174	-9.441150	2.264960	-0.849551	0.019014	0.007727	-0.015775	0.961615	-0.485975	-0.017796	0.241621	-0.061529	-0.968418	0.786502	-0.572119	0.232583	-0.568361	-0.817859	-0.089844
20175	-9.441900	2.233650	-0.833481	0.004232	0.007001	-0.009047	0.960809	-0.486064	-0.011457	0.241610	-0.061430	-0.968427	0.786492	-0.572161	0.232513	-0.568379	-0.817838	-0.089926
20176	-9.545670	2.235060	-0.832640	-0.000142	0.007154	-0.017795	0.965049	-0.491890	-0.016369	0.241487	-0.061255	-0.968469	0.786542	-0.572173	0.232314	-0.568362	-0.817842	-0.089992
20177	-9.574290	2.274590	-0.865998	0.007135	0.015606	-0.028647	0.963357	-0.496329	-0.015661	0.241371	-0.060974	-0.968516	0.786564	-0.572249	0.232052	-0.568382	-0.817810	-0.090164
20178	-9.654720	2.328900	-0.907844	0.026440	0.015829	-0.047054	0.963335	-0.484703	-0.018009	0.241128	-0.060625	-0.968598	0.786513	-0.572490	0.231631	-0.568555	-0.817667	-0.090361
20179	-9.688560	2.378650	-0.884260	0.050290	0.013927	-0.053871	0.963338	-0.495442	-0.013473	0.240804	-0.060213	-0.968704	0.786349	-0.572935	0.231086	-0.568918	-0.817386	-0.090617
20180	-9.650500	2.340790	-0.907421	0.069059	0.014965	-0.054856	0.958919	-0.489852	-0.013020	0.240467	-0.059812	-0.968813	0.786082	-0.573528	0.230520	-0.569430	-0.816999	-0.090897
20181	-9.515680	2.247640	-0.920561	0.075460	0.010427	-0.050124	0.964735	-0.489283	-0.009041	0.240152	-0.059450	-0.968913	0.785766	-0.574176	0.229988	-0.569999	-0.816571	-0.091176
20182	-9.462360	2.092830	-0.904872	0.078438	0.004894	-0.046600	0.969616	-0.487783	-0.008935	0.239865	-0.059145	-0.969003	0.785410	-0.574855	0.229506	-0.570610	-0.816115	-0.091434
20183	-9.463740	2.057810	-0.889603	0.076496	0.000255	-0.045379	0.969427	-0.486298	-0.013778	0.239530	-0.058892	-0.969101	0.785075	-0.575507	0.229018	-0.571212	-0.815674	-0.091616
20184	-9.538650	2.103280	-0.908996	0.094865	0.000012	-0.048040	0.963259	-0.488382	-0.007146	0.239141	-0.058593	-0.969215	0.784659	-0.576302	0.228444	-0.571945	-0.815134	-0.091842
20185	-9.573090	2.122630	-0.868286	0.116055	-0.002043	-0.051346	0.961611	-0.488132	-0.011831	0.238747	-0.058323	-0.969329	0.784110	-0.577278	0.227861	-0.572862	-0.814462	-0.092092
20186	-9.652510	2.210390	-0.847538	0.126073	-0.002405	-0.057515	0.965813	-0.486648	-0.016144	0.238336	-0.058021	-0.969448	0.783503	-0.578349	0.227235	-0.573864	-0.813723	-0.092382
20187	-9.698710	2.272270	-0.870605	0.140545	0.009305	-0.064279	0.959805	-0.484628	-0.003681	0.237906	-0.057583	-0.969580	0.782841	-0.579530	0.226504	-0.574944	-0.812914	-0.092795
20188	-9.700260	2.263900	-0.875173	0.151356	0.016632	-0.082055	0.959367	-0.484436	-0.006908	0.237385	-0.056992	-0.969742	0.782151	-0.580815	0.225598	-0.576098	-0.812038	-0.093300
20189	-9.519690	2.188140	-0.921749	0.162876	0.016108	-0.088446	0.957184	-0.483918	-0.007208	0.236806	-0.056357	-0.969921	0.781414	-0.582188	0.224610	-0.577334	-0.811099	-0.093827
20190	-9.286210	2.103510	-0.879367	0.172104	0.011517	-0.085651	0.969684	-0.482660	-0.010723	0.236262	-0.055793	-0.970086	0.780589	-0.583651	0.223678	-0.578671	-0.810086	-0.094344
20191	-9.280150	2.154210	-0.815601	0.184750	0.007941	-0.081641	0.968408	-0.488209	-0.002528	0.235692	-0.055262	-0.970255	0.779704	-0.585193	0.222734	-0.580095	-0.809009	-0.094837
20192	-9.497420	2.295530	-0.772099	0.183055	0.015213	-0.088259	0.971140	-0.485266	-0.006557	0.235119	-0.054647	-0.970429	0.778840	-0.586720	0.221740	-0.581488	-0.807944	-0.095388
20193	-9.556810	2.308650	-0.808361	0.159578	0.016640	-0.078456	0.965244	-0.483998	-0.002942	0.234626	-0.054062	-0.970581	0.778088	-0.588052	0.220848	-0.582692	-0.807014	-0.095907
20194	-9.586950	2.341310	-0.846200	0.129461	0.014093	-0.068223	0.964951	-0.477253	-0.000678	0.234219	-0.053586	-0.970706	0.777476	-0.589135	0.220117	-0.583672	-0.806256	-0.096325
20195	-9.467910	2.305580	-0.864382	0.104911	0.022362	-0.049612	0.967352	-0.486481	0.008119	0.233984	-0.053123	-0.970788	0.776972	-0.590008	0.219556	-0.584436	-0.805648	-0.096777
20196	-9.458150	2.249840	-0.886530	0.083760	0.031477	-0.040768	0.964801	-0.482387	-0.004433	0.233943	-0.052586	-0.970827	0.776557	-0.590715	0.219125	-0.585005	-0.805165	-0.097358
20197	-9.355320	2.214650	-0.874742	0.070890	0.030193	-0.031284	0.967665	-0.475701	-0.000646	0.233897	-0.052168	-0.970861	0.776208	-0.591303	0.218775	-0.585486	-0.804760	-0.097811
20198	-9.423920	2.284280	-0.892315	0.060262	0.022545	-0.022916	0.965367	-0.482571	-0.009362	0.233863	-0.051888	-0.970884	0.775894	-0.591808	0.218524	-0.585915	-0.804408	-0.098142
20199	-9.600670	2.400260	-0.867921	0.051541	0.017797	-0.014457	0.975004	-0.475384	-0.000573	0.233876	-0.051670	-0.970892	0.775618	-0.592231	0.218355	-0.586275	-0.804110	-0.098432
20200	-9.647240	2.458990	-0.971757	0.046381	0.005021	-0.007499	0.969639	-0.474390	-0.001320	0.233819	-0.051653	-0.970907	0.775358	-0.592609	0.218253	-0.586642	-0.803832	-0.098513
20201	-9.706570	2.382750	-1.032300	0.048694	0.016142	-0.011135	0.967404	-0.472348	0.001689	0.233847	-0.051468	-0.970910	0.775091	-0.593008	0.218119	-0.586983	-0.803550	-0.098781
20202	-9.588170	2.225150	-1.058590	0.053281	0.029535	-0.022623	0.971541	-0.470662	0.003032	0.233805	-0.051083	-0.970941	0.774836	-0.593456	0.217805	-0.587336	-0.803244	-0.099172
20203	-9.441640	1.966690	-1.016400	0.067071	0.026093	-0.032801	0.970261	-0.477588	-0.009105	0.233725	-0.050689	-0.970981	0.774512	-0.594012	0.217442	-0.587796	-0.802858	-0.099576
20204	-9.483720	1.837960	-0.992542	0.068022	0.031534	-0.052568	0.968007	-0.476653	-0.003490	0.233432	-0.050160	-0.971079	0.774241	-0.594589	0.216828	-0.588269	-0.802463	-0.099960
20205	-9.531500	1.773040	-1.027920	0.081106	0.042945	-0.068623	0.970091	-0.475969	0.007530	0.233173	-0.049418	-0.971179	0.773917	-0.595276	0.216102	-0.588798	-0.802001	-0.100557
20206	-9.693680	1.758600	-1.045900	0.092446	0.042614	-0.076496	0.975828	-0.483179	0.001786	0.232834	-0.048639	-0.971299	0.773543	-0.596060	0.215278	-0.589424	-0.801465	-0.101158
20207	-9.728750	1.856440	-1.144030	0.100396	0.046884	-0.067714	0.970882	-0.473777	0.004386	0.232607	-0.047871	-0.971392	0.773101	-0.596898	0.214540	-0.590092	-0.800888	-0.101834
20208	-9.712540	1.821220	-1.162690	0.138401	0.043342	-0.060963	0.977735	-0.476216	0.005758	0.232406	-0.047194	-0.971473	0.772419	-0.598031	0.213838	-0.591063	-0.800082	-0.102533
20209	-9.626830	1.752200	-1.104030	0.161814	0.031762	-0.051565	0.977495	-0.466456	0.002076	0.232215	-0.046642	-0.971545	0.771575	-0.599351	0.213192	-0.592240	-0.799127	-0.103191
20210	-9.558280	1.651930	-0.997039	0.185634	0.033312	-0.060926	0.970370	-0.466265	0.007589	0.231867	-0.046014	-0.971659	0.770625	-0.600870	0.212349	-0.593612	-0.798021	-0.103863
20211	-9.517750	1.629440	-0.861672	0.204910	0.036997	-0.070952	0.968219	-0.478169	0.011287	0.231559	-0.045302	-0.971765	0.769564	-0.602538	0.211467	-0.595106	-0.796803	-0.104660
20212	-9.604310	1.690590	-0.854534	0.239318	0.051558	-0.081793	0.972590	-0.471303	0.012370	0.231251	-0.044404	-0.971880	0.768316	-0.604491	0.210432	-0.596837	-0.795374	-0.105673
20213	-9.547400	1.775900	-0.906172	0.267670	0.076973	-0.099884	0.962858	-0.471546	0.012429	0.230963	-0.043198	-0.972003	0.766940	-0.606663	0.209198	-0.598715	-0.793785	-0.106986
20214	-9.468860	1.777140	-1.092090	0.273881	0.100169	-0.118300	0.973526	-0.476791	0.003381	0.230687	-0.041706	-0.972134	0.765553	-0.608895	0.207788	-0.600593	-0.792154	-0.108536
20215	-9.441630	1.683690	-1.134280	0.255324	0.107005	-0.133628	0.968764	-0.470271	0.015078	0.230327	-0.040055	-0.972288	0.764318	-0.610972	0.206231	-0.602301	-0.790638	-0.110109
20216	-9.408460	1.612180	-1.171630	0.230165	0.111526	-0.149891	0.969879	-0.469169	0.028255	0.229858	-0.038385	-0.972467	0.763255	-0.612848	0.204597	-0.603828	-0.789268	-0.111570
20217	-9.507090	1.726330	-1.074960	0.196529	0.097141	-0.156209	0.970417	-0.468272	0.026498	0.229272	-0.036672	-0.972671	0.762418	-0.614458	0.202879	-0.605105	-0.788097	-0.112919
20218	-9.681200	1.957870	-0.954428	0.149831	0.080384	-0.142335	0.977073	-0.464720	0.021288	0.228780	-0.035115	-0.972845	0.761831	-0.615679	0.201380	-0.606031	-0.787214	-0.114104
20219	-9.700530	2.146780	-1.065000	0.120222	0.078012	-0.105863	0.970231	-0.468418	0.026581	0.228467	-0.033860	-0.972963	0.761336	-0.616663	0.200234	-0.606770	-0.786499	-0.115108
20220	-9.454280	2.262260	-1.105460	0.112497	0.066543	-0.049994	0.982679	-0.460851	0.024627	0.228536	-0.033058	-0.972974	0.760755	-0.617562	0.199672	-0.607472	-0.785827	-0.115986
20221	-9.442770	2.247200	-1.066740	0.112625	0.034718	-0.000495	0.976007	-0.456566	0.031138	0.228763	-0.032794	-0.972930	0.760065	-0.618448	0.199558	-0.608251	-0.785141	-0.116552
20222	-9.562980	2.274950	-1.061230	0.102673	0.032320	0.031726	0.978243	-0.463454	0.032764	0.229161	-0.032699	-0.972839	0.759361	-0.619269	0.199690	-0.608979	-0.784498	-0.117082
20223	-9.636430	2.256310	-1.131590	0.103884	0.048473	0.039521	0.968264	-0.464419	0.031897	0.229776	-0.032576	-0.972698	0.758631	-0.620072	0.199974	-0.609658	-0.783868	-0.117765
20224	-9.548610	2.188920	-1.150940	0.124145	0.035493	0.038557	0.974926	-0.464306	0.026606	0.230350	-0.032503	-0.972565	0.757781	-0.621027	0.200233	-0.610497	-0.783115	-0.118423
20225	-9.507580	2.151110	-0.994854	0.146569	0.014206	0.025548	0.973965	-0.462237	0.024755	0.230650	-0.032562	-0.972492	0.756819	-0.622168	0.200330	-0.611576	-0.782207	-0.118859
20226	-9.466980	2.129880	-0.936579	0.144425	0.007414	0.003343	0.978401	-0.467835	0.025230	0.230692	-0.032590	-0.972481	0.755904	-0.623319	0.200205	-0.612691	-0.781288	-0.119159
20227	-9.461300	2.209170	-0.974077	0.131642	0.013915	-0.016056	0.969000	-0.465298	0.036500	0.230675	-0.032393	-0.972491	0.755127	-0.624354	0.199913	-0.613655	-0.780470	-0.119562
20228	-9.433020	2.265150	-0.919678	0.100297	0.022878	-0.024961	0.967420	-0.460625	0.022286	0.230668	-0.032094	-0.972503	0.754558	-0.625140	0.199604	-0.614356	-0.779853	-0.119984
20229	-9.554060	2.364870	-1.050560	0.071559	0.032343	-0.026391	0.974247	-0.470273	0.030384	0.230688	-0.031688	-0.972512	0.754172	-0.625708	0.199284	-0.614823	-0.779414	-0.120445
20230	-9.548090	2.333700	-1.192460	0.055104	0.033713	-0.022511	0.970610	-0.463368	0.024586	0.230725	-0.031401	-0.972512	0.753855	-0.626160	0.199067	-0.615199	-0.779062	-0.120799
20231	-9.466920	2.111260	-1.217980	0.048205	0.046039	-0.014110	0.972927	-0.455459	0.033086	0.230921	-0.030966	-0.972480	0.753583	-0.626541	0.198893	-0.615457	-0.778773	-0.121346
20232	-9.408810	1.876680	-1.137750	0.049109	0.043469	-0.005156	0.975203	-0.467966	0.034644	0.231096	-0.030671	-0.972447	0.753251	-0.626976	0.198780	-0.615798	-0.778434	-0.121788
20233	-9.477720	1.744420	-1.027330	0.042760	0.037144	-0.012739	0.971527	-0.459253	0.031637	0.231247	-0.030314	-0.972423	0.753010	-0.627315	0.198626	-0.616036	-0.778176	-0.122238
20234	-9.523330	1.653590	-1.041360	0.047295	0.036719	-0.013377	0.966001	-0.465438	0.028067	0.231385	-0.029993	-0.972400	0.752731	-0.627697	0.198475	-0.616325	-0.777880	-0.122663
20235	-9.615020	1.657720	-1.099350	0.064290	0.039908	-0.016840	0.975920	-0.465642	0.038412	0.231523	-0.029589	-0.972379	0.752367	-0.628204	0.198254	-0.616718	-0.777486	-0.123182
20236	-9.637970	1.630960	-1.078300	0.083764	0.031463	-0.015578	0.985515	-0.467246	0.033520	0.231640	-0.029320	-0.972360	0.751872	-0.628851	0.198076	-0.617277	-0.776973	-0.123622
20237	-9.724470	1.727300	-1.089930	0.094344	0.025387	-0.012905	0.979656	-0.471625	0.037373	0.231719	-0.029054	-0.972349	0.751312	-0.629589	0.197856	-0.617929	-0.776385	-0.124059
20238	-9.741670	1.839590	-1.140790	0.089730	0.029658	-0.004093	0.974493	-0.466579	0.038805	0.231900	-0.028856	-0.972312	0.750769	-0.630266	0.197766	-0.618522	-0.775843	-0.124494
20239	-9.596690	1.823800	-1.261090	0.089648	0.026737	0.009625	0.970842	-0.464553	0.037409	0.232156	-0.028722	-0.972254	0.750184	-0.630960	0.197770	-0.619134	-0.775283	-0.124935
20240	-9.394940	1.928140	-1.264740	0.090107	0.031775	0.020956	0.974962	-0.461177	0.039347	0.232563	-0.028649	-0.972159	0.749577	-0.631631	0.197930	-0.619717	-0.774739	-0.125419
20241	-9.274550	2.080960	-1.135100	0.081390	0.035665	0.022480	0.975982	-0.463004	0.037558	0.232971	-0.028527	-0.972065	0.749013	-0.632257	0.198068	-0.620245	-0.774233	-0.125931
20242	-9.349020	2.198680	-1.120590	0.045972	0.035736	0.013099	0.976016	-0.466407	0.037629	0.233273	-0.028378	-0.971997	0.748665	-0.632645	0.198145	-0.620552	-0.773922	-0.126333
20243	-9.537890	2.257070	-1.194440	0.011634	0.039873	0.008633	0.981645	-0.461509	0.034038	0.233604	-0.028136	-0.971925	0.748565	-0.632734	0.198236	-0.620547	-0.773858	-0.126747
20244	-9.698930	2.231850	-1.113690	-0.016302	0.039725	0.009127	0.980111	-0.458870	0.039793	0.233864	-0.027986	-0.971866	0.748594	-0.632663	0.198355	-0.620415	-0.773921	-0.127007
20245	-9.743940	2.144590	-1.125860	-0.057147	0.035111	0.021729	0.973093	-0.464436	0.037981	0.234263	-0.027864	-0.971774	0.748890	-0.632216	0.198661	-0.619907	-0.774291	-0.127238
20246	-9.638940	2.050610	-1.149140	-0.098619	0.031484	0.040723	0.972817	-0.469168	0.044361	0.234714	-0.027939	-0.971663	0.749354	-0.631506	0.199171	-0.619176	-0.774867	-0.127287
20247	-9.528090	1.981650	-1.167420	-0.129243	0.027895	0.047435	0.980241	-0.465034	0.031979	0.235261	-0.028035	-0.971528	0.750034	-0.630493	0.199819	-0.618143	-0.775689	-0.127303
20248	-9.493520	1.955550	-1.028370	-0.170977	0.032581	0.045525	0.979086	-0.462170	0.047072	0.235803	-0.028142	-0.971393	0.750961	-0.629165	0.200521	-0.616810	-0.776762	-0.127225
20249	-9.578310	1.835250	-1.062810	-0.198470	0.038396	0.032570	0.972656	-0.464407	0.032988	0.236303	-0.028062	-0.971274	0.752099	-0.627615	0.201112	-0.615230	-0.778018	-0.127202
20250	-9.738530	1.801850	-1.059890	-0.217291	0.059420	0.013835	0.970898	-0.467723	0.040156	0.236740	-0.027715	-0.971178	0.753358	-0.625976	0.201507	-0.613519	-0.779349	-0.127315
20251	-9.713290	1.846800	-1.187840	-0.220690	0.091003	-0.002661	0.978302	-0.468801	0.034324	0.237296	-0.027001	-0.971062	0.754709	-0.624258	0.201785	-0.611641	-0.780752	-0.127756
20252	-9.556980	1.834520	-1.181910	-0.223176	0.102607	-0.007322	0.976536	-0.458518	0.034375	0.237877	-0.026216	-0.970941	0.756072	-0.622521	0.202044	-0.609729	-0.782164	-0.128262
20253	-9.559040	1.741530	-0.951589	-0.244904	0.097628	-0.026809	0.975320	-0.463094	0.038039	0.238287	-0.025298	-0.970865	0.757619	-0.620613	0.202120	-0.607645	-0.783709	-0.128718
20254	-9.668700	1.629780	-0.906640	-0.259466	0.106330	-0.050426	0.971676	-0.467377	0.040460	0.238452	-0.024226	-0.970852	0.759219	-0.618723	0.201912	-0.605580	-0.785236	-0.129143
20255	-9.754220	1.528960	-0.968404	-0.231523	0.105654	-0.086678	0.976088	-0.462746	0.037299	0.238451	-0.022873	-0.970885	0.760818	-0.616926	0.201392	-0.603571	-0.786689	-0.129705
20256	-9.710120	1.465110	-0.871143	-0.186961	0.107493	-0.104539	0.985516	-0.465502	0.026694	0.238309	-0.021412	-0.970953	0.762173	-0.615497	0.200640	-0.601915	-0.787848	-0.130358
20257	-9.757920	1.347600	-0.792806	-0.145667	0.122144	-0.122119	0.978488	-0.461064	0.044407	0.238130	-0.019711	-0.971033	0.763332	-0.614376	0.199666	-0.600515	-0.788767	-0.131255
20258	-9.689120	1.323770	-0.822565	-0.125450	0.128319	-0.127066	0.979380	-0.463607	0.033466	0.237855	-0.018008	-0.971134	0.764315	-0.613507	0.198577	-0.599373	-0.789484	-0.132162
20259	-9.642410	1.478170	-0.956927	-0.129557	0.129509	-0.148166	0.976950	-0.461888	0.033952	0.237516	-0.016090	-0.971250	0.765435	-0.612511	0.197331	-0.598077	-0.790298	-0.133165
20260	-9.509370	1.805660	-1.170080	-0.141188	0.141772	-0.163970	0.973478	-0.460531	0.041247	0.237058	-0.014099	-0.971393	0.766607	-0.611485	0.195958	-0.596755	-0.791130	-0.134149
20261	-9.409150	2.051960	-1.448040	-0.146239	0.154795	-0.164948	0.989695	-0.463014	0.036308	0.236733	-0.011880	-0.971502	0.767862	-0.610352	0.194574	-0.595269	-0.792041	-0.135369
20262	-9.272720	2.082100	-1.454180	-0.147785	0.160006	-0.168793	0.977660	-0.456758	0.042311	0.236384	-0.009660	-0.971612	0.769119	-0.609211	0.193177	-0.593783	-0.792949	-0.136578
20263	-9.194170	1.898020	-1.347810	-0.168875	0.175246	-0.175299	0.986720	-0.457191	0.044007	0.236092	-0.007216	-0.971704	0.770527	-0.607889	0.191727	-0.592072	-0.793989	-0.137958
20264	-9.242610	1.702740	-1.424030	-0.205465	0.210920	-0.197759	0.982232	-0.447973	0.050963	0.235818	-0.004378	-0.971787	0.772192	-0.606280	0.190115	-0.590007	-0.795239	-0.139591
20265	-9.383380	1.404280	-1.405410	-0.228103	0.224391	-0.215140	0.982731	-0.458957	0.038556	0.235494	-0.001303	-0.971875	0.774035	-0.604474	0.188366	-0.587718	-0.796624	-0.141342
20266	-9.639780	1.252340	-1.247490	-0.236263	0.242615	-0.232152	0.989934	-0.449057	0.048576	0.235128	0.001988	-0.971962	0.775954	-0.602596	0.186479	-0.585330	-0.798044	-0.143229
20267	-10.007900	1.285710	-1.147070	-0.212487	0.247925	-0.257601	0.983852	-0.446132	0.049777	0.234593	0.005505	-0.972078	0.777792	-0.600892	0.184303	-0.583100	-0.799311	-0.145247
20268	-10.143700	1.336610	-1.144030	-0.190617	0.216200	-0.270116	0.992008	-0.450293	0.048280	0.233737	0.008831	-0.972260	0.779504	-0.599389	0.181953	-0.581155	-0.800409	-0.146983
20269	-10.118400	1.312280	-0.959231	-0.202654	0.155213	-0.271290	0.991443	-0.440391	0.051601	0.232538	0.011685	-0.972517	0.781304	-0.597742	0.179636	-0.579215	-0.801604	-0.148127
20270	-9.711630	1.217350	-0.919682	-0.209853	0.045769	-0.247897	0.991234	-0.440487	0.048786	0.230855	0.013484	-0.972895	0.783070	-0.596051	0.177552	-0.577501	-0.802833	-0.148160
20271	-9.774970	1.731740	-0.964984	-0.215719	-0.063512	-0.201451	0.995919	-0.439344	0.040725	0.228928	0.014159	-0.973340	0.784769	-0.594294	0.175931	-0.575959	-0.804123	-0.147162
20272	-10.252000	2.377910	-1.186100	-0.203438	-0.104110	-0.145705	0.997247	-0.438264	0.051485	0.227129	0.014065	-0.973763	0.786194	-0.592737	0.174817	-0.574727	-0.805273	-0.145686
20273	-10.033400	2.615340	-1.332310	-0.209236	-0.118021	-0.092325	0.999300	-0.437517	0.036104	0.225743	0.013647	-0.974091	0.787597	-0.591042	0.174243	-0.573351	-0.806525	-0.144172
20274	-9.071050	2.857950	-2.242100	-0.280622	-0.026579	-0.066156	0.985553	-0.431364	0.037032	0.225027	0.013743	-0.974256	0.789293	-0.588848	0.173999	-0.571297	-0.808127	-0.143354
20275	-8.548570	3.514070	-3.415410	-0.227597	0.100675	-0.051766	0.995603	-0.438015	0.040184	0.225210	0.014848	-0.974197	0.790699	-0.587003	0.173843	-0.569276	-0.809448	-0.143940
20276	-8.306110	3.534840	-3.390850	-0.012263	0.137310	-0.044795	0.997990	-0.425116	0.038422	0.225603	0.016109	-0.974086	0.790800	-0.586986	0.173446	-0.568981	-0.809437	-0.145165
20277	-8.572920	3.363900	-2.587580	0.108431	0.145654	-0.081352	0.995640	-0.439100	0.045191	0.225807	0.017752	-0.974010	0.790358	-0.587854	0.172516	-0.569513	-0.808772	-0.146772
20278	-9.519300	3.516050	-1.623630	0.040839	0.126101	-0.139558	0.996409	-0.439010	0.044880	0.225348	0.019481	-0.974084	0.790326	-0.588319	0.171071	-0.569740	-0.808394	-0.147973
20279	-10.150600	3.603210	-0.662118	-0.167244	0.058652	-0.156288	0.995040	-0.440272	0.036419	0.224463	0.020860	-0.974259	0.791621	-0.586940	0.169817	-0.568289	-0.809362	-0.148260
20280	-10.220900	3.551500	0.102463	-0.391955	-0.051033	-0.112794	1.003460	-0.427778	0.036143	0.223322	0.020981	-0.974519	0.794116	-0.583676	0.169414	-0.565249	-0.811715	-0.147010
20281	-9.815160	3.364320	0.325225	-0.564997	-0.139634	-0.027616	0.998780	-0.434022	0.040206	0.222334	0.019992	-0.974766	0.797352	-0.579079	0.169991	-0.561068	-0.815026	-0.144690
20282	-9.538390	3.031970	-0.267992	-0.677480	-0.134576	0.084522	0.994385	-0.436895	0.035964	0.222195	0.018259	-0.974831	0.800835	-0.573717	0.171790	-0.556141	-0.818850	-0.142100
20283	-9.269170	2.545810	-1.490050	-0.717432	-0.088087	0.176706	0.996237	-0.430102	0.035275	0.223144	0.016513	-0.974646	0.804404	-0.567863	0.174546	-0.550583	-0.822957	-0.139998
20284	-9.126640	1.991060	-2.672590	-0.637847	-0.029441	0.231537	0.989281	-0.437697	0.023994	0.224875	0.014930	-0.974273	0.807380	-0.562626	0.177732	-0.545498	-0.826577	-0.138574
20285	-8.953410	1.255400	-3.361440	-0.475593	-0.006636	0.258977	0.997853	-0.440427	0.020690	0.226950	0.013409	-0.973814	0.809373	-0.558730	0.180933	-0.541673	-0.829241	-0.137657
20286	-9.074610	0.421348	-3.477550	-0.319432	0.002111	0.257067	0.992029	-0.444032	0.018176	0.229019	0.011838	-0.973350	0.810434	-0.556210	0.183921	-0.539209	-0.830958	-0.136977
20287	-9.561600	0.065352	-3.389390	-0.192947	0.012866	0.226284	0.991448	-0.437636	0.021833	0.230940	0.010675	-0.972909	0.810945	-0.554635	0.186409	-0.537620	-0.832025	-0.136744
20288	-9.871570	-0.012957	-3.064860	-0.031480	-0.019582	0.192674	0.993482	-0.439932	0.014508	0.232328	0.009282	-0.972593	0.810534	-0.554589	0.188323	-0.537641	-0.832073	-0.136370
20289	-9.858920	-0.142817	-2.455430	0.150949	-0.062188	0.172166	0.987697	-0.450993	0.014445	0.233405	0.007795	-0.972348	0.809312	-0.555864	0.189814	-0.539013	-0.831237	-0.136050
20290	-9.743410	-0.154459	-1.903830	0.376359	-0.077439	0.139631	0.989310	-0.444878	0.019233	0.234006	0.006126	-0.972216	0.806757	-0.559279	0.190657	-0.542572	-0.828957	-0.135817
20291	-9.717410	-0.100129	-1.440460	0.612076	-0.066322	0.109780	0.995575	-0.448375	0.031347	0.234545	0.004946	-0.972093	0.803154	-0.564354	0.190913	-0.547660	-0.825518	-0.136339
20292	-9.645790	-0.019804	-1.110730	0.755594	-0.069319	0.103151	0.982455	-0.450477	0.028175	0.234917	0.003698	-0.972008	0.798629	-0.570763	0.190843	-0.554081	-0.821106	-0.137036
20293	-9.573170	0.426259	-0.985509	0.804181	-0.070963	0.136294	0.990538	-0.450323	0.027296	0.235623	0.002320	-0.971842	0.793817	-0.577357	0.191083	-0.560657	-0.816488	-0.137880
20294	-9.589250	1.280470	-0.963751	0.814774	-0.047483	0.171202	0.983706	-0.458329	0.035397	0.236667	0.000820	-0.971591	0.788720	-0.584122	0.191629	-0.567370	-0.811666	-0.138889
20295	-9.459210	1.862370	-1.118820	0.760849	-0.050551	0.194710	0.989055	-0.454392	0.036683	0.237926	-0.000748	-0.971283	0.783909	-0.590286	0.192481	-0.573479	-0.807194	-0.139857
20296	-9.337760	2.308480	-1.238730	0.662014	-0.053821	0.206406	0.991714	-0.454041	0.040460	0.239240	-0.002466	-0.970957	0.779588	-0.595618	0.193600	-0.578797	-0.803264	-0.140573
20297	-9.478690	2.712670	-1.367760	0.524270	-0.031676	0.196274	0.986346	-0.451559	0.039629	0.240598	-0.003909	-0.970617	0.776063	-0.599820	0.194787	-0.582957	-0.800125	-0.141282
20298	-9.534120	2.624120	-1.442120	0.357732	-0.034335	0.172415	0.987620	-0.454074	0.036889	0.241603	-0.005366	-0.970360	0.773342	-0.602970	0.195883	-0.586149	-0.797746	-0.141529
20299	-9.434670	2.337140	-1.467910	0.211102	-0.069588	0.159317	0.981250	-0.462608	0.044518	0.242441	-0.006899	-0.970142	0.771707	-0.604648	0.197151	-0.587954	-0.796463	-0.141267
20300	-9.324110	2.000020	-1.504690	0.138399	-0.063714	0.157845	0.983684	-0.458760	0.041156	0.243189	-0.008518	-0.969941	0.770336	-0.605965	0.198465	-0.589441	-0.795446	-0.140802
20301	-9.376540	1.709710	-1.700140	0.121053	-0.032125	0.168335	0.985135	-0.460321	0.043131	0.244311	-0.009811	-0.969647	0.769202	-0.606917	0.199948	-0.590458	-0.794704	-0.140730
20302	-9.473940	1.402920	-1.762610	0.107828	-0.019364	0.190100	0.986880	-0.466712	0.044135	0.245540	-0.011269	-0.969321	0.767898	-0.608026	0.201586	-0.591644	-0.793837	-0.140641
20303	-9.501260	1.343840	-1.723010	0.107554	-0.053637	0.243690	0.976870	-0.467244	0.043157	0.247107	-0.013195	-0.968898	0.766651	-0.608856	0.203818	-0.592609	-0.793171	-0.140337
20304	-9.696390	1.326890	-1.658690	0.164773	-0.115407	0.321455	0.980264	-0.471806	0.046054	0.248836	-0.016164	-0.968411	0.764777	-0.610240	0.206697	-0.594304	-0.792052	-0.139487
20305	-9.662900	1.225410	-1.535420	0.246309	-0.150062	0.410420	0.980767	-0.472871	0.042302	0.251090	-0.019877	-0.967760	0.762274	-0.612121	0.210349	-0.596567	-0.790515	-0.138546
20306	-9.738010	1.121720	-1.233810	0.346980	-0.172282	0.479930	0.970712	-0.478622	0.047022	0.253647	-0.024267	-0.966992	0.758875	-0.614901	0.214488	-0.599810	-0.788231	-0.137552
20307	-9.880350	1.262160	-0.879954	0.415033	-0.193005	0.497602	0.973717	-0.486973	0.042706	0.256267	-0.028870	-0.966175	0.755099	-0.618041	0.218749	-0.603451	-0.785616	-0.136583
20308	-9.799160	1.482230	-0.812092	0.411131	-0.213409	0.486721	0.973427	-0.489326	0.044531	0.258638	-0.033599	-0.965390	0.751331	-0.621140	0.222908	-0.607131	-0.782979	-0.135406
20309	-9.530350	1.584950	-1.199860	0.370006	-0.239576	0.482893	0.968816	-0.498927	0.043728	0.260813	-0.038496	-0.964621	0.747813	-0.623864	0.227090	-0.610534	-0.780584	-0.133924
20310	-9.329060	1.594960	-1.852530	0.344216	-0.221621	0.472669	0.962756	-0.508481	0.041927	0.262978	-0.043227	-0.963833	0.744441	-0.626378	0.231210	-0.613718	-0.778320	-0.132543
20311	-9.216770	1.330730	-2.323540	0.316285	-0.167113	0.458779	0.961525	-0.505398	0.038151	0.265371	-0.047423	-0.962979	0.741273	-0.628634	0.235233	-0.616517	-0.776254	-0.131668
20312	-9.401730	0.842992	-2.553440	0.254740	-0.115741	0.426806	0.966588	-0.512359	0.045405	0.267867	-0.051073	-0.962101	0.738602	-0.630316	0.239100	-0.618639	-0.774657	-0.131118
20313	-9.632220	0.238645	-2.647440	0.159257	-0.097271	0.379939	0.960728	-0.514089	0.044467	0.270080	-0.054240	-0.961309	0.736582	-0.631354	0.242567	-0.620083	-0.773596	-0.130564
20314	-9.799660	-0.173250	-2.476860	0.034266	-0.106069	0.349453	0.962699	-0.517170	0.042082	0.272031	-0.057260	-0.960583	0.735466	-0.631360	0.245914	-0.620555	-0.773373	-0.129636
