// Start Time: Unknown
// Update Rate: 100.0Hz
// Filter Profile: human (46.1)
// Firmware Version: 4.6.0
PacketCounter	Acc_X	Acc_Y	Acc_Z	Gyr_X	Gyr_Y	Gyr_Z	Mag_X	Mag_Y	Mag_Z	Mat[1][1]	Mat[2][1]	Mat[3][1]	Mat[1][2]	Mat[2][2]	Mat[3][2]	Mat[1][3]	Mat[2][3]	Mat[3][3]
19648	-9.738170	-1.200020	0.238317	0.008438	0.008536	0.007169	0.881010	0.382928	-0.084938	0.101747	-0.072090	-0.992195	-0.681291	0.721723	-0.122304	0.724906	0.688418	0.024319
19649	-9.709930	-1.251990	0.195285	-0.007046	0.006493	0.006558	0.876506	0.379767	-0.080156	0.100204	-0.078135	-0.991894	-0.662953	0.738132	-0.125118	0.741925	0.670116	0.022164
19650	-9.734380	-1.297540	0.066694	-0.003062	0.007671	0.007756	0.876481	0.380994	-0.090097	0.100096	-0.078129	-0.991906	-0.662983	0.738118	-0.125042	0.741913	0.670133	0.022084
19651	-9.753480	-1.353520	-0.003253	-0.004165	0.007148	0.003770	0.876401	0.381159	-0.094332	0.100025	-0.078225	-0.991905	-0.663034	0.738068	-0.125067	0.741877	0.670177	0.021959
19652	-9.700870	-1.359430	0.081564	0.006445	0.007947	0.006572	0.873953	0.385989	-0.083114	0.099922	-0.078230	-0.991915	-0.662993	0.738116	-0.125001	0.741927	0.670123	0.021888
19653	-9.705160	-1.282150	0.165807	0.005124	0.008725	0.006371	0.878851	0.380428	-0.090861	0.099813	-0.078245	-0.991925	-0.662960	0.738157	-0.124937	0.741972	0.670077	0.021804
19654	-9.723500	-1.316160	0.069174	0.008437	0.008535	0.007173	0.882396	0.383735	-0.088402	0.099702	-0.078249	-0.991936	-0.662904	0.738219	-0.124864	0.742036	0.670008	0.021730
19655	-9.728720	-1.283050	0.094896	0.009996	0.009968	0.004184	0.868557	0.384794	-0.089745	0.099596	-0.078262	-0.991945	-0.662825	0.738301	-0.124801	0.742121	0.669916	0.021657
19656	-9.675530	-1.289340	0.067782	0.010873	0.009157	0.006080	0.872625	0.379657	-0.095403	0.099487	-0.078279	-0.991955	-0.662750	0.738378	-0.124738	0.742202	0.669828	0.021580
19657	-9.695230	-1.345010	0.109902	0.005549	0.005246	0.004086	0.884134	0.372147	-0.086910	0.099410	-0.078211	-0.991968	-0.662689	0.738451	-0.124634	0.742267	0.669757	0.021579
19658	-9.712470	-1.312670	0.156846	0.006689	0.012796	0.009258	0.873106	0.378282	-0.092181	0.099253	-0.078228	-0.991982	-0.662649	0.738503	-0.124540	0.742324	0.669697	0.021461
19659	-9.735020	-1.269780	0.144841	0.001590	0.010219	0.009354	0.882830	0.387922	-0.090804	0.099107	-0.078200	-0.991999	-0.662629	0.738541	-0.124420	0.742362	0.669658	0.021377
19660	-9.736090	-1.312960	0.085496	-0.001517	0.008232	0.010050	0.882800	0.376763	-0.086875	0.098979	-0.078181	-0.992014	-0.662650	0.738539	-0.124321	0.742360	0.669663	0.021293
19661	-9.714750	-1.398090	0.037038	0.010001	0.012606	0.010064	0.880273	0.375777	-0.084628	0.098808	-0.078234	-0.992026	-0.662580	0.738615	-0.124243	0.742445	0.669573	0.021145
19662	-9.696720	-1.362320	0.131823	0.027475	0.015232	0.011291	0.878399	0.378809	-0.085952	0.098620	-0.078252	-0.992044	-0.662387	0.738808	-0.124126	0.742642	0.669358	0.021028
19663	-9.656470	-1.182520	0.188701	0.015769	0.016551	0.010370	0.880884	0.373700	-0.089697	0.098421	-0.078410	-0.992051	-0.662282	0.738904	-0.124107	0.742762	0.669233	0.020794
19664	-9.685970	-1.195330	0.086214	0.000918	0.008856	0.008958	0.872913	0.381035	-0.089788	0.098296	-0.078403	-0.992064	-0.662284	0.738917	-0.124018	0.742777	0.669219	0.020708
19665	-9.688710	-1.304810	-0.004847	-0.000833	0.010477	0.005163	0.882999	0.380712	-0.085570	0.098164	-0.078463	-0.992072	-0.662277	0.738932	-0.123973	0.742801	0.669196	0.020572
19666	-9.770420	-1.244710	0.062731	0.003130	0.008140	0.005775	0.875003	0.381145	-0.080810	0.098065	-0.078474	-0.992081	-0.662259	0.738957	-0.123915	0.742830	0.669167	0.020496
19667	-9.753250	-1.253600	0.099504	0.000469	0.006185	0.004775	0.882024	0.378128	-0.092628	0.097953	-0.078686	-0.992075	-0.662276	0.738928	-0.123998	0.742829	0.669174	0.020268
19668	-9.730940	-1.295180	0.109924	-0.003514	0.005008	0.003572	0.881045	0.380412	-0.085227	0.097892	-0.078693	-0.992081	-0.662306	0.738907	-0.123963	0.742811	0.669196	0.020214
19669	-9.703500	-1.369220	0.093909	0.003335	0.005963	0.007275	0.877700	0.373166	-0.082298	0.097754	-0.078772	-0.992088	-0.662273	0.738943	-0.123928	0.742858	0.669148	0.020066
19670	-9.695880	-1.313320	0.071839	0.010201	0.007790	0.005694	0.875116	0.379328	-0.089432	0.097659	-0.078782	-0.992097	-0.662203	0.739015	-0.123870	0.742934	0.669066	0.020002
19671	-9.671890	-1.288450	0.113713	0.003132	0.010781	0.011654	0.876548	0.378564	-0.089981	0.097441	-0.078934	-0.992106	-0.662185	0.739037	-0.123836	0.742978	0.669024	0.019744
19672	-9.714190	-1.323990	0.059482	0.002013	0.006742	0.007072	0.878040	0.383617	-0.081563	0.097344	-0.078926	-0.992116	-0.662177	0.739056	-0.123765	0.742998	0.669004	0.019679
19673	-9.714310	-1.323190	0.058837	0.003558	0.007299	0.009369	0.877028	0.377115	-0.090276	0.097227	-0.079118	-0.992112	-0.662151	0.739069	-0.123829	0.743036	0.668968	0.019470
19674	-9.766000	-1.249230	0.116049	0.007094	0.008444	0.012268	0.883233	0.379099	-0.088565	0.097084	-0.079084	-0.992129	-0.662110	0.739126	-0.123706	0.743092	0.668909	0.019395
19675	-9.741180	-1.202290	0.131383	0.000450	0.005314	0.010063	0.884513	0.369830	-0.089926	0.096924	-0.079194	-0.992136	-0.662088	0.739150	-0.123681	0.743132	0.668869	0.019208
19676	-9.748200	-1.234800	0.125630	-0.004854	0.004917	0.008653	0.875369	0.382100	-0.088195	0.096830	-0.079163	-0.992148	-0.662132	0.739124	-0.123596	0.743105	0.668901	0.019153
19677	-9.666660	-1.293740	0.056624	-0.001298	0.006935	0.006267	0.886253	0.378555	-0.090760	0.096648	-0.079305	-0.992154	-0.662119	0.739139	-0.123580	0.743141	0.668867	0.018927
19678	-9.692610	-1.360700	0.066684	0.000246	0.007491	0.008564	0.882251	0.377656	-0.088630	0.096536	-0.079292	-0.992166	-0.662125	0.739148	-0.123494	0.743150	0.668860	0.018853
19679	-9.656590	-1.335020	0.087391	0.006667	0.009285	0.008679	0.881516	0.381953	-0.087497	0.096349	-0.079471	-0.992170	-0.662049	0.739215	-0.123500	0.743241	0.668764	0.018609
19680	-9.707360	-1.239400	0.117715	0.000916	0.008859	0.008963	0.883591	0.374280	-0.084122	0.096223	-0.079463	-0.992183	-0.662051	0.739228	-0.123411	0.743256	0.668750	0.018522
19681	-9.717750	-1.195720	0.084891	-0.004205	0.002772	0.008460	0.880574	0.376522	-0.084702	0.096088	-0.079673	-0.992179	-0.662072	0.739199	-0.123477	0.743255	0.668758	0.018278
19682	-9.764280	-1.176800	0.030948	-0.009752	0.000169	0.010243	0.878127	0.376550	-0.088199	0.096018	-0.079599	-0.992192	-0.662154	0.739142	-0.123377	0.743191	0.668830	0.018265
19683	-9.783320	-1.210390	0.046761	-0.009285	0.001072	0.003263	0.876802	0.380958	-0.095413	0.095900	-0.079800	-0.992187	-0.662200	0.739089	-0.123448	0.743166	0.668864	0.018035
19684	-9.791180	-1.265240	0.068074	-0.008412	0.000262	0.005162	0.882291	0.383169	-0.090030	0.095863	-0.079763	-0.992194	-0.662267	0.739037	-0.123398	0.743110	0.668926	0.018022
19685	-9.766240	-1.219020	0.083992	-0.008636	-0.001074	0.003069	0.889029	0.383788	-0.088116	0.095854	-0.079873	-0.992186	-0.662286	0.739007	-0.123475	0.743094	0.668946	0.017938
19686	-9.779220	-1.263810	0.046736	-0.009509	-0.000263	0.001171	0.881491	0.376200	-0.092666	0.095849	-0.079862	-0.992187	-0.662358	0.738944	-0.123464	0.743031	0.669017	0.017930
19687	-9.737080	-1.249560	0.014959	-0.011948	-0.000881	0.002262	0.881300	0.370617	-0.089822	0.095755	-0.080048	-0.992181	-0.662411	0.738884	-0.123542	0.742996	0.669061	0.017728
19688	-9.744910	-1.304720	0.036487	-0.005101	-0.002572	0.000089	0.878860	0.376528	-0.084919	0.095774	-0.080029	-0.992181	-0.662448	0.738850	-0.123541	0.742960	0.669100	0.017748
19689	-9.738870	-1.293130	0.068732	-0.002460	-0.004132	0.000497	0.884228	0.381932	-0.090881	0.095617	-0.080222	-0.992180	-0.662419	0.738871	-0.123578	0.743007	0.669055	0.017508
19690	-9.720810	-1.280640	0.079725	-0.001118	-0.001398	0.001295	0.881962	0.372984	-0.083632	0.095619	-0.080202	-0.992182	-0.662428	0.738864	-0.123565	0.742998	0.669064	0.017521
19691	-9.731970	-1.259550	0.074338	0.001320	-0.000780	0.000204	0.877969	0.381822	-0.089528	0.095496	-0.080463	-0.992172	-0.662384	0.738886	-0.123676	0.743053	0.669009	0.017263
19692	-9.725040	-1.226170	0.079762	-0.001342	-0.002734	-0.000798	0.875030	0.379791	-0.076318	0.095521	-0.080450	-0.992171	-0.662393	0.738876	-0.123683	0.743042	0.669021	0.017289
19693	-9.748210	-1.206130	0.095820	-0.004005	-0.004687	-0.001800	0.883899	0.381566	-0.088996	0.095534	-0.080731	-0.992147	-0.662423	0.738813	-0.123902	0.743014	0.669058	0.017103
19694	-9.749110	-1.250470	0.037799	-0.005996	-0.005274	-0.002402	0.880155	0.374308	-0.088415	0.095589	-0.080714	-0.992143	-0.662465	0.738771	-0.123927	0.742969	0.669106	0.017148
19695	-9.715610	-1.313760	0.054520	-0.003536	-0.001142	-0.002900	0.881608	0.364064	-0.091069	0.095488	-0.080962	-0.992133	-0.662441	0.738772	-0.124043	0.743003	0.669074	0.016911
19696	-9.727620	-1.314780	0.075947	-0.000022	-0.003514	-0.000594	0.884938	0.379500	-0.085448	0.095518	-0.080943	-0.992131	-0.662441	0.738772	-0.124049	0.743000	0.669077	0.016946
19697	-9.708640	-1.280720	0.060106	-0.000427	0.000843	-0.003592	0.887287	0.378169	-0.087093	0.095296	-0.081221	-0.992130	-0.662354	0.738840	-0.124106	0.743105	0.668968	0.016612
19698	-9.692350	-1.334410	0.039286	0.000852	-0.004325	0.001304	0.879343	0.378043	-0.088826	0.095319	-0.081182	-0.992131	-0.662349	0.738847	-0.124092	0.743107	0.668965	0.016655
19699	-9.710420	-1.346870	0.028994	0.007496	-0.003837	-0.002370	0.887543	0.380110	-0.090196	0.095243	-0.081453	-0.992116	-0.662245	0.738915	-0.124240	0.743209	0.668857	0.016435
19700	-9.698320	-1.323840	0.093232	0.014813	0.000657	0.000236	0.873971	0.369675	-0.087354	0.095236	-0.081455	-0.992117	-0.662135	0.739015	-0.124235	0.743308	0.668747	0.016446
19701	-9.715430	-1.269670	0.226153	0.015037	0.001993	0.002330	0.881198	0.376079	-0.084080	0.095062	-0.081697	-0.992113	-0.661941	0.739179	-0.124295	0.743504	0.668536	0.016189
19702	-9.712830	-1.203900	0.145830	0.005325	0.003908	0.002003	0.889105	0.383114	-0.081335	0.095018	-0.081708	-0.992117	-0.661903	0.739216	-0.124272	0.743543	0.668493	0.016156
19703	-9.674320	-1.321620	0.050500	0.005974	0.001761	0.001808	0.881739	0.377349	-0.086468	0.094908	-0.082081	-0.992096	-0.661872	0.739210	-0.124476	0.743585	0.668454	0.015829
19704	-9.707800	-1.258540	0.033942	0.010180	0.001630	-0.000773	0.880021	0.379696	-0.085971	0.094899	-0.082098	-0.992096	-0.661796	0.739277	-0.124481	0.743654	0.668378	0.015824
19705	-9.703570	-1.312910	0.034256	0.014365	0.000627	0.001933	0.880470	0.376013	-0.087484	0.094819	-0.082360	-0.992082	-0.661653	0.739382	-0.124620	0.743791	0.668230	0.015614
19706	-9.725880	-1.270930	0.023314	0.016376	0.002087	-0.002750	0.885870	0.370623	-0.091989	0.094821	-0.082395	-0.992079	-0.661529	0.739488	-0.124644	0.743901	0.668108	0.015612
19707	-9.759290	-1.185580	0.092035	0.015685	-0.000152	0.002139	0.881337	0.378435	-0.088588	0.094624	-0.082609	-0.992080	-0.661295	0.739694	-0.124667	0.744134	0.667854	0.015364
19708	-9.777370	-1.197970	0.081559	0.002416	-0.002896	-0.001683	0.878054	0.378934	-0.086533	0.094654	-0.082602	-0.992077	-0.661276	0.739709	-0.124681	0.744147	0.667838	0.015394
19709	-9.771350	-1.208900	0.028784	-0.002684	-0.005468	-0.001593	0.884099	0.370691	-0.086218	0.094656	-0.082802	-0.992061	-0.661248	0.739708	-0.124831	0.744172	0.667814	0.015265
19710	-9.778200	-1.220130	0.109267	-0.003355	-0.006836	-0.001992	0.879268	0.381016	-0.089926	0.094718	-0.082771	-0.992057	-0.661271	0.739684	-0.124850	0.744143	0.667844	0.015327
19711	-9.724810	-1.204930	0.168773	-0.004676	-0.006056	-0.002196	0.877209	0.378891	-0.091994	0.094643	-0.082968	-0.992048	-0.661227	0.739708	-0.124946	0.744192	0.667794	0.015147
19712	-9.737750	-1.250120	0.132033	-0.015504	-0.005540	-0.001228	0.884124	0.377935	-0.094913	0.094690	-0.082940	-0.992046	-0.661341	0.739603	-0.124959	0.744084	0.667913	0.015181
19713	-9.732590	-1.283000	0.106063	-0.018392	-0.008830	-0.004321	0.879741	0.382455	-0.093681	0.094723	-0.083014	-0.992036	-0.661369	0.739566	-0.125036	0.744056	0.667946	0.015151
19714	-9.712130	-1.413480	0.000658	-0.011968	-0.004396	0.001672	0.876661	0.381367	-0.089153	0.094743	-0.082971	-0.992038	-0.661459	0.739488	-0.125020	0.743973	0.668037	0.015180
19715	-9.728420	-1.359780	0.021898	0.003961	-0.002339	0.000612	0.889357	0.373720	-0.084618	0.094798	-0.083085	-0.992023	-0.661371	0.739546	-0.125140	0.744044	0.667958	0.015158
19716	-9.690540	-1.291170	-0.009735	0.008594	-0.003312	0.001623	0.880499	0.374438	-0.092138	0.094813	-0.083049	-0.992025	-0.661308	0.739606	-0.125122	0.744099	0.667897	0.015203
19717	-9.716350	-1.336310	0.086645	0.011906	-0.003504	0.002429	0.878184	0.377165	-0.086369	0.094621	-0.083263	-0.992025	-0.661124	0.739766	-0.125149	0.744286	0.667693	0.014950
19718	-9.677540	-1.223350	0.113577	0.015218	-0.003697	0.003236	0.879671	0.382542	-0.088511	0.094626	-0.083212	-0.992029	-0.661013	0.739871	-0.125112	0.744384	0.667583	0.015007
19719	-9.729890	-1.171980	0.198799	0.003493	-0.005884	0.001715	0.884073	0.377753	-0.089887	0.094659	-0.083382	-0.992012	-0.660949	0.739902	-0.125260	0.744436	0.667527	0.014927
19720	-9.684490	-1.256410	0.109425	-0.002460	-0.004132	0.000500	0.875764	0.374717	-0.087069	0.094687	-0.083349	-0.992012	-0.660968	0.739887	-0.125254	0.744417	0.667548	0.014966
19721	-9.731840	-1.260050	0.082923	0.001726	-0.005134	0.003205	0.880617	0.379160	-0.083393	0.094618	-0.083477	-0.992008	-0.660873	0.739964	-0.125302	0.744510	0.667446	0.014847
19722	-9.730970	-1.238180	0.056824	-0.004028	-0.008202	-0.002388	0.876999	0.376449	-0.090368	0.094695	-0.083438	-0.992004	-0.660900	0.739936	-0.125324	0.744476	0.667482	0.014924
19723	-9.755990	-1.283950	0.041704	-0.000734	-0.009266	0.003706	0.881105	0.378446	-0.080627	0.094699	-0.083557	-0.991993	-0.660857	0.739959	-0.125416	0.744513	0.667443	0.014855
19724	-9.717450	-1.379350	0.032488	0.005931	-0.005266	0.000623	0.880922	0.374577	-0.087740	0.094735	-0.083516	-0.991993	-0.660813	0.739999	-0.125408	0.744548	0.667403	0.014915
19725	-9.732730	-1.281440	0.112563	0.011883	-0.007018	0.001837	0.878867	0.375761	-0.089101	0.094677	-0.083748	-0.991979	-0.660696	0.740082	-0.125540	0.744659	0.667282	0.014737
19726	-9.747260	-1.184120	0.080795	0.007697	-0.006015	-0.000867	0.885724	0.373871	-0.089692	0.094727	-0.083714	-0.991977	-0.660637	0.740133	-0.125547	0.744705	0.667230	0.014806
19727	-9.760970	-1.228660	0.156175	0.001947	-0.006440	-0.000580	0.877475	0.385315	-0.082783	0.094633	-0.083852	-0.991975	-0.660516	0.740235	-0.125585	0.744824	0.667099	0.014665
19728	-9.730020	-1.193490	0.119403	-0.000914	-0.003574	0.002798	0.884913	0.377774	-0.086761	0.094640	-0.083807	-0.991978	-0.660525	0.740231	-0.125556	0.744815	0.667109	0.014699
19729	-9.718020	-1.192480	0.098751	-0.003600	-0.009042	0.001208	0.880170	0.374428	-0.089081	0.094728	-0.084010	-0.991952	-0.660585	0.740142	-0.125767	0.744751	0.667182	0.014617
19730	-9.743020	-1.238430	0.083703	-0.006692	-0.010155	-0.003384	0.877116	0.373489	-0.091178	0.094826	-0.083968	-0.991946	-0.660632	0.740094	-0.125803	0.744697	0.667240	0.014708
19731	-9.690570	-1.267410	0.084987	-0.004475	-0.008232	-0.000690	0.878779	0.379688	-0.083797	0.094768	-0.084014	-0.991948	-0.660529	0.740187	-0.125796	0.744795	0.667132	0.014652
19732	-9.738720	-1.293270	0.085497	-0.002912	-0.006804	-0.003681	0.876574	0.377611	-0.091363	0.094842	-0.083996	-0.991942	-0.660547	0.740164	-0.125833	0.744770	0.667159	0.014715
19733	-9.697440	-1.301190	0.081152	0.000830	-0.007837	0.000717	0.889453	0.376783	-0.086213	0.094903	-0.084104	-0.991927	-0.660495	0.740191	-0.125952	0.744809	0.667116	0.014696
19734	-9.725660	-1.248500	0.124133	0.001721	-0.007776	-0.002672	0.887679	0.374593	-0.087762	0.094979	-0.084073	-0.991923	-0.660480	0.740200	-0.125979	0.744813	0.667110	0.014775
19735	-9.754050	-1.218230	0.081916	0.001947	-0.006439	-0.000580	0.885570	0.375341	-0.083010	0.094818	-0.084291	-0.991920	-0.660424	0.740240	-0.126034	0.744882	0.667038	0.014520
19736	-9.748950	-1.250990	0.056115	-0.005350	-0.007421	-0.002587	0.875177	0.382079	-0.076357	0.094888	-0.084262	-0.991915	-0.660462	0.740202	-0.126060	0.744840	0.667084	0.014585
19737	-9.749780	-1.272830	0.083565	0.000384	-0.007867	0.002412	0.875637	0.382145	-0.087375	0.094889	-0.084558	-0.991890	-0.660533	0.740100	-0.126283	0.744776	0.667159	0.014374
19738	-9.744500	-1.283100	0.142993	0.006149	-0.006570	-0.003165	0.877146	0.373120	-0.092440	0.094957	-0.084543	-0.991885	-0.660486	0.740137	-0.126316	0.744810	0.667121	0.014442
19739	-9.701350	-1.225050	0.170096	0.004406	-0.002308	-0.001083	0.879318	0.379628	-0.084619	0.094994	-0.084608	-0.991876	-0.660357	0.740240	-0.126387	0.744920	0.666998	0.014447
19740	-9.695430	-1.235920	0.117274	-0.000694	-0.004880	-0.000987	0.883349	0.379846	-0.086537	0.095036	-0.084588	-0.991874	-0.660362	0.740233	-0.126400	0.744910	0.667008	0.014490
19741	-9.713510	-1.248440	0.106996	-0.002015	-0.004100	-0.001191	0.885813	0.380632	-0.089710	0.095064	-0.084793	-0.991853	-0.660385	0.740184	-0.126573	0.744886	0.667037	0.014369
19742	-9.691140	-1.290680	0.118426	0.003508	-0.005011	-0.003572	0.880461	0.379029	-0.089727	0.095125	-0.084792	-0.991848	-0.660356	0.740202	-0.126612	0.744903	0.667017	0.014418
19743	-9.679100	-1.290200	0.097552	0.001539	-0.002085	-0.003582	0.877488	0.372207	-0.084865	0.095146	-0.084931	-0.991834	-0.660300	0.740232	-0.126729	0.744950	0.666966	0.014350
19744	-9.683300	-1.236060	0.097611	0.007492	-0.003836	-0.002371	0.883775	0.382276	-0.087314	0.095190	-0.084929	-0.991830	-0.660243	0.740278	-0.126756	0.744995	0.666915	0.014393
19745	-9.706420	-1.216130	0.113792	-0.001570	-0.004070	-0.002885	0.881473	0.374248	-0.090557	0.095169	-0.085113	-0.991816	-0.660215	0.740283	-0.126878	0.745023	0.666886	0.014259
19746	-9.714320	-1.294300	0.050388	0.002225	0.000153	-0.008473	0.879298	0.374447	-0.093492	0.095224	-0.085183	-0.991805	-0.660192	0.740288	-0.126967	0.745036	0.666871	0.014255
19747	-9.720930	-1.306000	0.130443	0.009725	-0.001041	-0.004966	0.884601	0.377351	-0.090605	0.095132	-0.085225	-0.991810	-0.659955	0.740505	-0.126932	0.745258	0.666625	0.014201
19748	-9.749100	-1.253680	0.172878	0.009725	-0.001041	-0.004966	0.880975	0.380746	-0.085802	0.095171	-0.085260	-0.991803	-0.659879	0.740564	-0.126983	0.745320	0.666555	0.014219
19749	-9.764480	-1.178650	0.167246	0.002210	-0.000718	-0.003185	0.869047	0.382054	-0.084577	0.095161	-0.085429	-0.991789	-0.659827	0.740590	-0.127101	0.745368	0.666504	0.014107
19750	-9.724190	-1.231090	0.103938	-0.003321	-0.002451	-0.006681	0.887102	0.370583	-0.087930	0.095222	-0.085468	-0.991780	-0.659846	0.740561	-0.127172	0.745342	0.666532	0.014122
19751	-9.766180	-1.245790	0.135888	-0.002649	-0.001084	-0.006284	0.887379	0.365556	-0.085103	0.095211	-0.085656	-0.991765	-0.659804	0.740576	-0.127303	0.745382	0.666491	0.013995
19752	-9.724840	-1.254160	0.130735	-0.004619	0.001841	-0.006295	0.878354	0.378655	-0.074784	0.095238	-0.085721	-0.991757	-0.659834	0.740538	-0.127371	0.745352	0.666525	0.013965
19753	-9.703450	-1.340850	0.083210	-0.006852	-0.000954	-0.003699	0.878123	0.379519	-0.084700	0.094980	-0.086067	-0.991752	-0.659885	0.740477	-0.127458	0.745339	0.666548	0.013536
19754	-9.698330	-1.373710	0.056718	0.006865	0.001825	-0.001588	0.877298	0.380510	-0.085737	0.094972	-0.086101	-0.991749	-0.659835	0.740518	-0.127476	0.745384	0.666498	0.013516
19755	-9.662120	-1.349050	0.078000	0.009302	0.002444	-0.002681	0.880186	0.380134	-0.083014	0.095037	-0.086317	-0.991724	-0.659767	0.740544	-0.127681	0.745437	0.666441	0.013430
19756	-9.623290	-1.422310	0.152867	0.020604	0.008118	0.001115	0.877706	0.382519	-0.089706	0.094966	-0.086374	-0.991726	-0.659617	0.740679	-0.127673	0.745578	0.666284	0.013366
19757	-9.659290	-1.238790	0.167117	0.021720	0.009516	-0.000182	0.878349	0.373928	-0.096172	0.094996	-0.086604	-0.991703	-0.659456	0.740790	-0.127861	0.745717	0.666131	0.013260
19758	-9.646500	-1.216060	0.118646	0.011075	0.004339	0.001706	0.880711	0.379721	-0.092606	0.094950	-0.086632	-0.991705	-0.659378	0.740861	-0.127851	0.745792	0.666048	0.013222
19759	-9.693860	-1.219930	0.091578	0.006865	0.001825	-0.001586	0.882920	0.379380	-0.082225	0.094932	-0.086553	-0.991714	-0.659145	0.741081	-0.127776	0.746000	0.665813	0.013301
19760	-9.730820	-1.266900	0.096861	0.002006	0.001458	-0.004686	0.882395	0.374974	-0.087079	0.094950	-0.086607	-0.991707	-0.659127	0.741088	-0.127828	0.746013	0.665799	0.013282
19761	-9.747020	-1.213800	0.117643	0.004443	0.002076	-0.005779	0.874379	0.383295	-0.084286	0.094871	-0.086871	-0.991692	-0.659077	0.741108	-0.127971	0.746067	0.665742	0.013055
19762	-9.776240	-1.205690	0.101220	-0.001080	0.002985	-0.003401	0.882043	0.380674	-0.083697	0.094868	-0.086926	-0.991687	-0.659085	0.741094	-0.128011	0.746061	0.665750	0.013014
19763	-9.764190	-1.205320	0.079780	-0.007726	-0.000148	-0.005600	0.880524	0.381458	-0.097941	0.095023	-0.087186	-0.991650	-0.659176	0.740961	-0.128310	0.745961	0.665864	0.012937
19764	-9.788290	-1.229970	0.037250	-0.007748	-0.003661	-0.006188	0.877650	0.383345	-0.086315	0.095090	-0.087220	-0.991640	-0.659231	0.740900	-0.128381	0.745904	0.665928	0.012954
19765	-9.788200	-1.230650	0.037405	-0.007952	-0.001484	-0.007690	0.883964	0.372545	-0.082467	0.095300	-0.087234	-0.991619	-0.659204	0.740898	-0.128531	0.745900	0.665929	0.013103
19766	-9.759660	-1.261650	0.080382	-0.006406	-0.000926	-0.005395	0.879601	0.379571	-0.083713	0.095345	-0.087279	-0.991611	-0.659249	0.740847	-0.128595	0.745855	0.665979	0.013097
19767	-9.742300	-1.271690	0.117974	-0.001554	-0.003201	-0.008170	0.875435	0.375893	-0.084610	0.095251	-0.087539	-0.991597	-0.659237	0.740835	-0.128726	0.745878	0.665958	0.012856
19768	-9.718200	-1.270860	0.075520	-0.006166	0.001281	-0.008590	0.880655	0.382387	-0.092241	0.095298	-0.087624	-0.991585	-0.659277	0.740782	-0.128822	0.745836	0.666006	0.012827
19769	-9.735370	-1.262340	0.038234	-0.008644	-0.006365	-0.008674	0.876175	0.390112	-0.095075	0.095425	-0.087692	-0.991567	-0.659258	0.740776	-0.128957	0.745837	0.666004	0.012877
19770	-9.730970	-1.317480	0.038726	-0.003299	0.001061	-0.006090	0.880664	0.376978	-0.082968	0.095458	-0.087757	-0.991558	-0.659280	0.740744	-0.129028	0.745814	0.666030	0.012853
19771	-9.705740	-1.249820	0.139666	0.001779	0.000123	-0.006776	0.884011	0.381308	-0.083092	0.095661	-0.087867	-0.991528	-0.659224	0.740756	-0.129245	0.745837	0.666003	0.012937
19772	-9.734940	-1.241860	0.123425	-0.005735	0.000441	-0.004997	0.880901	0.376610	-0.086468	0.095694	-0.087919	-0.991521	-0.659264	0.740710	-0.129306	0.745797	0.666048	0.012919
19773	-9.690060	-1.326480	0.145367	-0.005516	-0.000865	-0.008781	0.877962	0.381888	-0.088683	0.095661	-0.088152	-0.991503	-0.659285	0.740665	-0.129459	0.745783	0.666067	0.012736
19774	-9.666790	-1.347270	0.129347	0.000704	0.005752	-0.004300	0.875436	0.377772	-0.087075	0.095649	-0.088236	-0.991497	-0.659278	0.740661	-0.129513	0.745791	0.666060	0.012672
19775	-9.689110	-1.305860	0.118099	-0.000212	-0.000465	-0.007376	0.883869	0.380764	-0.091682	0.095749	-0.088336	-0.991478	-0.659196	0.740710	-0.129653	0.745851	0.665992	0.012691
19776	-9.686660	-1.240960	0.037745	-0.003073	0.002397	-0.003999	0.875517	0.381776	-0.088322	0.095761	-0.088395	-0.991472	-0.659217	0.740681	-0.129706	0.745830	0.666016	0.012656
19777	-9.716660	-1.254800	0.048032	-0.002184	0.002459	-0.007387	0.875628	0.376255	-0.087848	0.095847	-0.088464	-0.991457	-0.659146	0.740726	-0.129814	0.745882	0.665958	0.012686
19778	-9.734480	-1.245510	0.122419	-0.001327	-0.001863	-0.006078	0.878539	0.374448	-0.085189	0.095906	-0.088509	-0.991448	-0.659153	0.740707	-0.129887	0.745869	0.665972	0.012697
19779	-9.746400	-1.246970	0.143740	-0.003970	-0.000307	-0.006486	0.877262	0.375377	-0.085672	0.095811	-0.088612	-0.991447	-0.659073	0.740776	-0.129899	0.745951	0.665882	0.012573
19780	-9.729970	-1.301270	0.122724	-0.004846	0.000503	-0.008383	0.875434	0.375000	-0.087256	0.095866	-0.088690	-0.991435	-0.659103	0.740733	-0.129995	0.745918	0.665920	0.012555
19781	-9.724750	-1.334600	0.096054	-0.005942	0.002617	-0.006496	0.886606	0.378122	-0.087638	0.095756	-0.088804	-0.991436	-0.659035	0.740791	-0.130006	0.745992	0.665840	0.012410
19782	-9.689450	-1.354600	0.058676	0.000922	0.004448	-0.008082	0.876336	0.380347	-0.083363	0.095779	-0.088906	-0.991424	-0.659023	0.740786	-0.130096	0.746000	0.665831	0.012360
19783	-9.700570	-1.334270	0.052839	0.005111	0.003450	-0.005380	0.881313	0.376885	-0.086312	0.095710	-0.089093	-0.991414	-0.658948	0.740837	-0.130188	0.746075	0.665750	0.012198
19784	-9.722820	-1.270190	0.126444	0.001153	0.008425	-0.000118	0.888576	0.379550	-0.086639	0.095649	-0.089162	-0.991414	-0.658941	0.740840	-0.130200	0.746088	0.665737	0.012108
19785	-9.740070	-1.261100	0.088667	0.000665	-0.001274	-0.005477	0.881507	0.376597	-0.090308	0.095531	-0.089279	-0.991415	-0.658891	0.740884	-0.130208	0.746148	0.665673	0.011953
19786	-9.764940	-1.307380	0.072606	0.001579	0.004943	-0.002401	0.875466	0.376032	-0.082319	0.095511	-0.089342	-0.991411	-0.658879	0.740888	-0.130241	0.746161	0.665659	0.011897
19787	-9.712420	-1.336310	0.072627	0.005336	0.004786	-0.003289	0.877246	0.384085	-0.086305	0.095373	-0.089451	-0.991414	-0.658747	0.741008	-0.130228	0.746295	0.665512	0.011746
19788	-9.670200	-1.299950	0.125494	0.007553	0.006712	-0.000598	0.885600	0.384485	-0.089053	0.095326	-0.089513	-0.991413	-0.658693	0.741054	-0.130242	0.746349	0.665452	0.011680
19789	-9.642620	-1.374610	0.109451	0.008668	0.008111	-0.001894	0.883719	0.377056	-0.079135	0.095401	-0.089652	-0.991394	-0.658593	0.741115	-0.130395	0.746427	0.665365	0.011659
19790	-9.683900	-1.366960	0.113841	0.013526	0.008482	0.001206	0.887310	0.384556	-0.081854	0.095331	-0.089713	-0.991395	-0.658496	0.741203	-0.130392	0.746522	0.665260	0.011584
19791	-9.688320	-1.312220	0.112800	0.007556	0.009355	0.005276	0.877839	0.373326	-0.090035	0.095111	-0.090025	-0.991388	-0.658513	0.741172	-0.130480	0.746535	0.665251	0.011211
19792	-9.687570	-1.290070	0.085304	0.007777	0.008049	0.001493	0.875571	0.376192	-0.097012	0.095041	-0.090083	-0.991389	-0.658459	0.741220	-0.130475	0.746591	0.665190	0.011131
19793	-9.699640	-1.290480	0.105845	0.008432	0.008547	0.007175	0.881926	0.376297	-0.090132	0.094844	-0.089860	-0.991428	-0.658166	0.741534	-0.130173	0.746875	0.664871	0.011188
19794	-9.698920	-1.268120	0.078262	0.008671	0.010754	0.003981	0.874988	0.374320	-0.081202	0.094737	-0.089913	-0.991434	-0.658108	0.741591	-0.130141	0.746940	0.664799	0.011084
19795	-9.699780	-1.289610	0.104181	0.004019	0.008207	0.002382	0.875970	0.379516	-0.090140	0.094519	-0.089999	-0.991447	-0.657991	0.741709	-0.130058	0.747070	0.664656	0.010887
19796	-9.699820	-1.289340	0.103467	0.007331	0.008019	0.003188	0.887796	0.380437	-0.085241	0.094436	-0.090040	-0.991451	-0.657942	0.741757	-0.130033	0.747124	0.664597	0.010807
19797	-9.704220	-1.234570	0.102514	0.004225	0.006031	0.003883	0.870695	0.382016	-0.087744	0.094357	-0.090069	-0.991456	-0.657839	0.741854	-0.130001	0.747224	0.664485	0.010748
19798	-9.706780	-1.322150	0.097061	0.002028	0.007618	0.001780	0.879258	0.376069	-0.085561	0.094286	-0.090117	-0.991458	-0.657828	0.741866	-0.129990	0.747243	0.664465	0.010666
19799	-9.718010	-1.300990	0.090775	0.008447	0.009418	0.001893	0.879725	0.372223	-0.083111	0.094271	-0.090196	-0.991452	-0.657662	0.742005	-0.130036	0.747392	0.664299	0.010631
19800	-9.734440	-1.246950	0.110936	0.002011	0.006748	0.007065	0.872623	0.371341	-0.076351	0.094173	-0.090199	-0.991461	-0.657655	0.742022	-0.129973	0.747409	0.664280	0.010559
19801	-9.747390	-1.291630	0.073257	-0.005060	0.004450	0.001270	0.879681	0.380197	-0.078181	0.093874	-0.090416	-0.991470	-0.657677	0.742009	-0.129937	0.747428	0.664265	0.010191
19802	-9.706170	-1.298920	0.067698	0.002011	0.006748	0.007066	0.879815	0.372993	-0.081330	0.093774	-0.090420	-0.991479	-0.657672	0.742025	-0.129873	0.747445	0.664246	0.010116
19803	-9.718270	-1.299240	0.088457	-0.002864	0.002864	0.003373	0.883748	0.377239	-0.083534	0.093600	-0.090644	-0.991475	-0.657724	0.741970	-0.129926	0.747421	0.664278	0.009830
19804	-9.743260	-1.344630	0.072097	0.002011	0.006748	0.007066	0.888075	0.381958	-0.086902	0.093499	-0.090650	-0.991484	-0.657719	0.741985	-0.129863	0.747438	0.664260	0.009752
19805	-9.768350	-1.181610	0.091804	0.002438	0.003265	0.004784	0.874420	0.372505	-0.091846	0.093369	-0.090704	-0.991491	-0.657680	0.742027	-0.129816	0.747489	0.664205	0.009628
19806	-9.763240	-1.213830	0.065095	-0.002864	0.002864	0.003373	0.875983	0.379023	-0.088896	0.093320	-0.090712	-0.991495	-0.657708	0.742007	-0.129790	0.747470	0.664226	0.009582
19807	-9.736570	-1.309940	0.076277	-0.005525	0.000906	0.002374	0.888625	0.383350	-0.082144	0.093302	-0.090542	-0.991512	-0.657545	0.742176	-0.129649	0.747616	0.664061	0.009711
19808	-9.748640	-1.310430	0.097346	0.001768	0.001897	0.004387	0.884423	0.378185	-0.087418	0.093254	-0.090534	-0.991518	-0.657539	0.742188	-0.129611	0.747627	0.664048	0.009682
19809	-9.700560	-1.284250	0.097163	0.000466	0.006189	0.004771	0.877617	0.380804	-0.082515	0.093139	-0.090626	-0.991520	-0.657533	0.742195	-0.129603	0.747647	0.664028	0.009538
19810	-9.688610	-1.282850	0.075461	-0.001766	0.003393	0.007363	0.884757	0.374285	-0.083452	0.093060	-0.090606	-0.991529	-0.657556	0.742187	-0.129536	0.747636	0.664040	0.009490
19811	-9.694730	-1.293850	0.043169	-0.001320	0.003423	0.005670	0.884813	0.374799	-0.085986	0.092927	-0.090693	-0.991534	-0.657546	0.742200	-0.129513	0.747662	0.664014	0.009335
19812	-9.705980	-1.272400	0.037442	0.001098	0.000529	0.003990	0.875264	0.377615	-0.085388	0.092891	-0.090680	-0.991538	-0.657544	0.742207	-0.129479	0.747668	0.664008	0.009318
19813	-9.728370	-1.207580	0.111342	0.000447	0.002675	0.004182	0.888597	0.376390	-0.084008	0.092770	-0.090666	-0.991551	-0.657454	0.742303	-0.129387	0.747762	0.663903	0.009255
19814	-9.706060	-1.249120	0.122187	-0.003981	0.001466	0.004670	0.877928	0.380537	-0.088576	0.092722	-0.090653	-0.991557	-0.657491	0.742277	-0.129346	0.747735	0.663933	0.009222
19815	-9.719880	-1.315540	0.111627	-0.003981	0.001467	0.004670	0.879931	0.365995	-0.080890	0.092645	-0.090625	-0.991566	-0.657454	0.742322	-0.129273	0.747777	0.663886	0.009191
19816	-9.707070	-1.292420	0.063260	-0.001971	0.005570	0.005863	0.871684	0.378558	-0.083718	0.092559	-0.090630	-0.991574	-0.657477	0.742311	-0.129220	0.747768	0.663898	0.009121
19817	-9.731240	-1.315910	0.020124	0.000671	0.004013	0.006274	0.882330	0.374843	-0.082840	0.092334	-0.090677	-0.991591	-0.657409	0.742392	-0.129104	0.747856	0.663801	0.008936
19818	-9.713230	-1.303030	0.030681	0.002865	-0.000220	0.002502	0.884155	0.373247	-0.078152	0.092311	-0.090668	-0.991594	-0.657393	0.742410	-0.129083	0.747873	0.663782	0.008928
19819	-9.752830	-1.228820	0.067147	0.007741	0.003663	0.006197	0.879072	0.373392	-0.080794	0.092031	-0.090789	-0.991609	-0.657357	0.742458	-0.128987	0.747938	0.663712	0.008648
19820	-9.746880	-1.216600	0.098986	0.001972	-0.000280	0.005889	0.874891	0.377885	-0.087109	0.091985	-0.090756	-0.991616	-0.657352	0.742473	-0.128931	0.747949	0.663700	0.008638
19821	-9.747810	-1.237840	0.125707	-0.000670	0.001278	0.005478	0.878136	0.375630	-0.083235	0.091916	-0.090756	-0.991622	-0.657275	0.742548	-0.128885	0.748024	0.663616	0.008601
19822	-9.729810	-1.224920	0.136231	0.000447	0.002675	0.004183	0.878932	0.377054	-0.089032	0.091860	-0.090755	-0.991628	-0.657279	0.742551	-0.128847	0.748028	0.663612	0.008559
19823	-9.719580	-1.289720	0.083286	-0.001340	-0.000090	0.005081	0.878364	0.379899	-0.078941	0.091825	-0.090680	-0.991638	-0.657177	0.742656	-0.128766	0.748122	0.663505	0.008601
19824	-9.668950	-1.384010	0.052056	0.003109	0.004632	0.005184	0.891876	0.374023	-0.090174	0.091747	-0.090684	-0.991645	-0.657161	0.742678	-0.128717	0.748145	0.663480	0.008544
19825	-9.772190	-1.259760	0.082059	0.006197	0.005750	0.009778	0.878530	0.373156	-0.092209	0.091551	-0.090673	-0.991664	-0.657081	0.742773	-0.128578	0.748240	0.663375	0.008422
19826	-9.700040	-1.231710	0.039565	0.000651	0.000499	0.005684	0.887778	0.383758	-0.086921	0.091500	-0.090645	-0.991671	-0.657085	0.742779	-0.128523	0.748243	0.663372	0.008403
19827	-9.755180	-1.290310	0.034162	0.004409	0.000339	0.004800	0.880986	0.380719	-0.086828	0.091503	-0.090484	-0.991685	-0.656904	0.742960	-0.128402	0.748401	0.663192	0.008544
19828	-9.691640	-1.316990	0.125305	0.011052	0.003472	0.007008	0.882400	0.380499	-0.080610	0.091422	-0.090464	-0.991695	-0.656831	0.743037	-0.128333	0.748475	0.663108	0.008510
19829	-9.720070	-1.263490	0.167096	0.008411	0.005031	0.006597	0.877971	0.377299	-0.081681	0.091436	-0.090533	-0.991687	-0.656730	0.743116	-0.128393	0.748562	0.663010	0.008492
19830	-9.683150	-1.216160	0.161366	0.002662	0.004603	0.006878	0.883269	0.377075	-0.090050	0.091348	-0.090523	-0.991696	-0.656719	0.743137	-0.128327	0.748582	0.662988	0.008436
19831	-9.694410	-1.216960	0.070318	-0.007516	0.002969	0.007645	0.878590	0.377198	-0.090406	0.091291	-0.090464	-0.991707	-0.656686	0.743180	-0.128244	0.748619	0.662947	0.008440
19832	-9.748710	-1.253580	0.037916	-0.003108	0.000661	0.006569	0.881332	0.372020	-0.090990	0.091235	-0.090429	-0.991715	-0.656718	0.743163	-0.128181	0.748597	0.662971	0.008417
19833	-9.726460	-1.295070	0.048688	-0.003514	0.005014	0.003566	0.875891	0.371198	-0.077655	0.091151	-0.090233	-0.991741	-0.656554	0.743343	-0.127977	0.748751	0.662797	0.008514
19834	-9.714480	-1.271300	0.112210	0.003311	0.002456	0.006687	0.880785	0.371586	-0.084719	0.091081	-0.090207	-0.991749	-0.656537	0.743369	-0.127911	0.748774	0.662771	0.008482
19835	-9.695600	-1.236420	0.095907	-0.003758	0.002808	0.006762	0.875962	0.376635	-0.085966	0.090850	-0.090252	-0.991767	-0.656551	0.743377	-0.127791	0.748790	0.662755	0.008281
19836	-9.698390	-1.346000	0.005761	-0.001565	0.001220	0.008867	0.882011	0.382419	-0.082054	0.090773	-0.090202	-0.991778	-0.656573	0.743373	-0.127703	0.748780	0.662767	0.008254
19837	-9.703610	-1.312650	0.031916	0.006420	0.004441	0.005996	0.872214	0.372681	-0.088088	0.090826	-0.090245	-0.991769	-0.656449	0.743472	-0.127769	0.748883	0.662650	0.008285
19838	-9.759430	-1.184680	0.089000	0.006196	0.003103	0.003904	0.879803	0.369534	-0.081647	0.090769	-0.090245	-0.991775	-0.656408	0.743514	-0.127731	0.748926	0.662603	0.008251
19839	-9.759510	-1.184030	0.088704	0.005526	0.004382	0.009384	0.878728	0.374882	-0.085313	0.090572	-0.090155	-0.991801	-0.656262	0.743677	-0.127531	0.749077	0.662432	0.008191
19840	-9.766520	-1.216830	0.083442	-0.005995	-0.002631	0.003476	0.875585	0.379716	-0.083642	0.090560	-0.090119	-0.991805	-0.656312	0.743639	-0.127497	0.749035	0.662480	0.008198
19841	-9.778590	-1.217360	0.104738	-0.006197	-0.000455	0.001974	0.880357	0.370637	-0.080523	0.090640	-0.090122	-0.991798	-0.656255	0.743680	-0.127551	0.749075	0.662434	0.008264
19842	-9.751230	-1.291590	0.089322	-0.004429	0.001442	0.006364	0.882745	0.375101	-0.083884	0.090580	-0.090091	-0.991806	-0.656296	0.743654	-0.127488	0.749046	0.662466	0.008234
19843	-9.739270	-1.290210	0.067968	-0.005100	0.000075	0.005966	0.879503	0.380219	-0.090748	0.090404	-0.090091	-0.991822	-0.656318	0.743655	-0.127372	0.749048	0.662466	0.008101
19844	-9.709220	-1.276430	0.057355	-0.006420	0.000854	0.005761	0.877885	0.373780	-0.080157	0.090351	-0.090061	-0.991829	-0.656374	0.743616	-0.127315	0.749006	0.662514	0.008073
19845	-9.719540	-1.232990	0.025037	-0.004899	-0.002102	0.007468	0.876962	0.373922	-0.086617	0.090390	-0.089972	-0.991834	-0.656299	0.743689	-0.127273	0.749067	0.662444	0.008174
19846	-9.750650	-1.267340	0.062483	-0.003131	-0.002852	0.005980	0.886535	0.379571	-0.081328	0.090364	-0.089915	-0.991842	-0.656330	0.743672	-0.127214	0.749043	0.662471	0.008187
19847	-9.698310	-1.295660	0.063175	0.001097	0.000529	0.003992	0.888044	0.376232	-0.088792	0.090344	-0.089911	-0.991844	-0.656258	0.743738	-0.127197	0.749108	0.662397	0.008188
19848	-9.748940	-1.200380	0.094211	-0.002013	-0.001455	0.004684	0.884307	0.376179	-0.082652	0.090317	-0.089873	-0.991850	-0.656279	0.743727	-0.127150	0.749093	0.662414	0.008189
19849	-9.736960	-1.199030	0.073140	-0.006890	-0.002689	0.006865	0.878764	0.374435	-0.078320	0.090237	-0.089763	-0.991867	-0.656271	0.743758	-0.127015	0.749110	0.662394	0.008205
19850	-9.697570	-1.272560	0.036729	-0.006421	-0.001791	-0.000118	0.885107	0.379231	-0.077442	0.090243	-0.089758	-0.991867	-0.656320	0.743714	-0.127015	0.749066	0.662444	0.008205
19851	-9.744860	-1.253810	0.095019	-0.002237	-0.002793	0.002592	0.882357	0.383600	-0.084552	0.090223	-0.089929	-0.991853	-0.656384	0.743638	-0.127131	0.749013	0.662506	0.008065
19852	-9.737040	-1.198320	0.073727	-0.006667	-0.003997	0.003079	0.884319	0.381088	-0.081618	0.090224	-0.089887	-0.991857	-0.656439	0.743595	-0.127101	0.748965	0.662561	0.008085
19853	-9.721750	-1.273470	0.079867	-0.007987	-0.003217	0.002873	0.885464	0.375515	-0.087878	0.090397	-0.089934	-0.991837	-0.656443	0.743565	-0.127251	0.748939	0.662588	0.008180
19854	-9.728730	-1.306630	0.074745	-0.004206	0.000134	0.002580	0.874541	0.378809	-0.085729	0.090373	-0.089924	-0.991840	-0.656479	0.743538	-0.127227	0.748911	0.662620	0.008163
19855	-9.709790	-1.271990	0.058649	0.002641	0.001086	0.006291	0.877887	0.375420	-0.080544	0.090396	-0.089811	-0.991848	-0.656333	0.743678	-0.127157	0.749036	0.662477	0.008280
19856	-9.697790	-1.248240	0.122431	0.001768	0.001895	0.004391	0.880908	0.364415	-0.082011	0.090347	-0.089798	-0.991854	-0.656326	0.743692	-0.127115	0.749049	0.662464	0.008254
19857	-9.710830	-1.292830	0.085264	-0.002013	-0.001455	0.004685	0.879115	0.373967	-0.088171	0.090146	-0.089784	-0.991873	-0.656324	0.743718	-0.126971	0.749074	0.662436	0.008116
19858	-9.704910	-1.303070	0.032130	0.000202	0.000469	0.007382	0.880732	0.378780	-0.084829	0.090087	-0.089739	-0.991883	-0.656331	0.743725	-0.126898	0.749075	0.662435	0.008101
19859	-9.721220	-1.248750	0.052846	0.001993	0.003233	0.006484	0.881412	0.373471	-0.083299	0.090078	-0.089644	-0.991892	-0.656191	0.743862	-0.126819	0.749199	0.662295	0.008182
19860	-9.756510	-1.228720	0.089634	0.001969	-0.000281	0.005893	0.884053	0.376147	-0.083462	0.090035	-0.089604	-0.991900	-0.656183	0.743879	-0.126761	0.749211	0.662281	0.008178
19861	-9.767740	-1.206940	0.084085	0.001746	0.001027	0.009681	0.882867	0.374414	-0.079747	0.089916	-0.089549	-0.991915	-0.656127	0.743948	-0.126640	0.749274	0.662210	0.008138
19862	-9.738610	-1.214820	0.100351	-0.000022	-0.000868	0.005289	0.879402	0.374128	-0.080476	0.089881	-0.089510	-0.991922	-0.656134	0.743952	-0.126588	0.749273	0.662211	0.008137
19863	-9.746590	-1.269330	0.121825	-0.000893	0.002588	0.009270	0.888005	0.369668	-0.081036	0.089744	-0.089560	-0.991930	-0.656142	0.743953	-0.126534	0.749282	0.662203	0.008001
19864	-9.705440	-1.276360	0.116561	-0.001766	0.003398	0.007370	0.880530	0.374030	-0.089226	0.089663	-0.089534	-0.991940	-0.656164	0.743946	-0.126461	0.749273	0.662214	0.007955
19865	-9.705550	-1.275590	0.116223	-0.004205	0.002782	0.008461	0.886127	0.374930	-0.085804	0.089455	-0.089413	-0.991969	-0.656138	0.744008	-0.126233	0.749320	0.662161	0.007888
19866	-9.704740	-1.252870	0.089082	-0.003980	0.004120	0.010554	0.880088	0.383960	-0.082340	0.089347	-0.089368	-0.991983	-0.656179	0.743990	-0.126128	0.749298	0.662187	0.007832
19867	-9.716930	-1.252620	0.109788	-0.003308	0.005487	0.010953	0.887429	0.372536	-0.081466	0.089353	-0.089348	-0.991984	-0.656124	0.744040	-0.126116	0.749344	0.662134	0.007859
19868	-9.758330	-1.243720	0.114117	-0.004628	0.006268	0.010748	0.877152	0.375774	-0.080542	0.089229	-0.089315	-0.991999	-0.656170	0.744018	-0.126009	0.749319	0.662163	0.007782
19869	-9.711210	-1.261280	0.055299	-0.000645	0.007441	0.011957	0.883794	0.373055	-0.076905	0.089049	-0.089338	-0.992013	-0.656161	0.744043	-0.125908	0.749348	0.662132	0.007636
19870	-9.699260	-1.237170	0.118386	0.005800	0.010096	0.006786	0.893276	0.374161	-0.084735	0.088922	-0.089361	-0.992022	-0.656125	0.744086	-0.125840	0.749395	0.662081	0.007534
19871	-9.686380	-1.213580	0.069490	-0.001741	0.009560	0.013846	0.887904	0.377432	-0.083575	0.088625	-0.089372	-0.992048	-0.656169	0.744079	-0.125652	0.749392	0.662087	0.007301
19872	-9.701490	-1.300970	0.085062	-0.001318	0.006075	0.011560	0.885185	0.375014	-0.084553	0.088495	-0.089332	-0.992063	-0.656191	0.744079	-0.125536	0.749388	0.662092	0.007228
19873	-9.643270	-1.317070	0.116769	0.001370	0.011543	0.013157	0.882941	0.368602	-0.082904	0.088326	-0.089288	-0.992082	-0.656127	0.744161	-0.125391	0.749464	0.662006	0.007145
19874	-9.649500	-1.304880	0.168795	0.007344	0.013300	0.014972	0.883283	0.368266	-0.081309	0.088120	-0.089271	-0.992102	-0.656086	0.744221	-0.125241	0.749524	0.661941	0.007012
19875	-9.750520	-1.135870	0.144404	-0.000174	0.013635	0.016742	0.878453	0.368199	-0.087581	0.087728	-0.089200	-0.992143	-0.656072	0.744286	-0.124928	0.749582	0.661877	0.006773
19876	-9.733570	-1.188640	0.010494	-0.013243	0.008728	0.014407	0.878797	0.377496	-0.079767	0.087559	-0.089156	-0.992162	-0.656186	0.744211	-0.124784	0.749502	0.661968	0.006659
19877	-9.764870	-1.244720	-0.038556	-0.003260	0.012522	0.012144	0.881962	0.378089	-0.083339	0.087419	-0.089107	-0.992178	-0.656107	0.744302	-0.124654	0.749588	0.661872	0.006602
19878	-9.774140	-1.134190	0.071481	0.000275	0.011016	0.009166	0.876875	0.383426	-0.080901	0.087267	-0.089117	-0.992191	-0.656114	0.744311	-0.124560	0.749599	0.661861	0.006483
19879	-9.735010	-1.184710	0.119128	-0.009710	0.007224	0.011430	0.877641	0.376757	-0.085774	0.087386	-0.089148	-0.992178	-0.656072	0.744331	-0.124662	0.749622	0.661834	0.006557
19880	-9.674730	-1.321450	0.119312	-0.007890	0.013501	0.011129	0.879962	0.370347	-0.081581	0.087205	-0.089159	-0.992192	-0.656142	0.744288	-0.124551	0.749582	0.661881	0.006404
19881	-9.733300	-1.138840	0.063176	-0.001270	0.013107	0.012753	0.878280	0.369517	-0.088613	0.087082	-0.089103	-0.992208	-0.656043	0.744396	-0.124427	0.749683	0.661767	0.006368
19882	-9.749480	-1.106680	-0.002056	-0.016779	0.004944	0.005616	0.880519	0.371680	-0.079772	0.087002	-0.089098	-0.992216	-0.656175	0.744289	-0.124371	0.749577	0.661888	0.006290
19883	-9.781660	-1.207480	-0.109036	-0.016358	0.004105	0.009214	0.880442	0.370946	-0.084834	0.086885	-0.088961	-0.992238	-0.656195	0.744301	-0.124191	0.749572	0.661893	0.006293
19884	-9.857200	-1.157570	-0.094509	-0.006623	0.003043	0.004263	0.881926	0.364996	-0.082343	0.086828	-0.088953	-0.992244	-0.656249	0.744261	-0.124148	0.749532	0.661939	0.006247
19885	-9.822120	-1.132030	0.038559	-0.002414	0.002902	0.001684	0.879698	0.376824	-0.087032	0.086672	-0.088854	-0.992267	-0.656194	0.744339	-0.123970	0.749598	0.661865	0.006208
19886	-9.816120	-1.120370	0.070206	-0.007716	0.002516	0.000266	0.879943	0.367837	-0.077987	0.086644	-0.088872	-0.992267	-0.656253	0.744288	-0.123965	0.749550	0.661920	0.006166
19887	-9.751700	-1.148710	0.049622	-0.016381	-0.004702	-0.003154	0.876436	0.373758	-0.085249	0.086714	-0.088830	-0.992265	-0.656276	0.744266	-0.123980	0.749522	0.661950	0.006242
19888	-9.718410	-1.234470	-0.018633	-0.013071	-0.004900	-0.002341	0.884288	0.372197	-0.085385	0.086759	-0.088817	-0.992262	-0.656372	0.744177	-0.124002	0.749432	0.662051	0.006267
19889	-9.710320	-1.343590	-0.017898	-0.009285	-0.001553	-0.002629	0.879360	0.367536	-0.083357	0.086829	-0.088718	-0.992265	-0.656296	0.744249	-0.123973	0.749490	0.661984	0.006397
19890	-9.664060	-1.361870	0.035907	0.009734	0.001583	0.000934	0.889215	0.362965	-0.079752	0.086804	-0.088723	-0.992267	-0.656224	0.744314	-0.123959	0.749556	0.661910	0.006387
19891	-9.711390	-1.179090	0.071930	0.013943	0.001443	-0.001645	0.878286	0.363424	-0.085897	0.086557	-0.088668	-0.992293	-0.656127	0.744434	-0.123754	0.749670	0.661782	0.006259
19892	-9.710360	-1.157410	0.045258	0.001768	-0.000753	-0.001490	0.888330	0.373665	-0.079159	0.086565	-0.088675	-0.992292	-0.656113	0.744445	-0.123764	0.749682	0.661769	0.006261
19893	-9.770630	-1.206270	-0.018966	0.006649	0.000473	-0.003669	0.886054	0.372595	-0.080554	0.086455	-0.088637	-0.992305	-0.656015	0.744548	-0.123662	0.749779	0.661659	0.006222
19894	-9.774690	-1.129830	0.065968	0.013719	0.000106	-0.003740	0.887295	0.374392	-0.079780	0.086470	-0.088666	-0.992301	-0.655910	0.744636	-0.123693	0.749870	0.661555	0.006231
19895	-9.779680	-1.097780	0.092570	0.004883	-0.001420	-0.008065	0.879993	0.379328	-0.085383	0.086485	-0.088755	-0.992292	-0.655847	0.744679	-0.123769	0.749924	0.661496	0.006194
19896	-9.763460	-1.152240	0.071765	-0.003505	-0.000271	-0.008199	0.879704	0.370887	-0.084437	0.086531	-0.088815	-0.992282	-0.655866	0.744649	-0.123844	0.749901	0.661521	0.006185
19897	-9.746220	-1.184860	0.024210	-0.000868	-0.001835	-0.007787	0.872619	0.379377	-0.074365	0.086699	-0.088793	-0.992270	-0.655704	0.744776	-0.123937	0.750023	0.661381	0.006350
19898	-9.758180	-1.186590	0.045598	-0.001961	-0.002361	-0.011784	0.876760	0.373558	-0.079943	0.086785	-0.088865	-0.992256	-0.655709	0.744753	-0.124049	0.750009	0.661397	0.006364
19899	-9.712720	-1.250110	0.041225	-0.003952	-0.002946	-0.012389	0.880057	0.370893	-0.086335	0.087033	-0.089096	-0.992213	-0.655651	0.744748	-0.124386	0.750031	0.661372	0.006402
19900	-9.667260	-1.313550	0.036709	0.001375	0.000957	-0.010376	0.877614	0.374941	-0.081252	0.087086	-0.089180	-0.992201	-0.655632	0.744748	-0.124484	0.750042	0.661360	0.006388
19901	-9.688150	-1.414720	0.020944	0.016859	0.002961	-0.009719	0.883124	0.371697	-0.080023	0.087157	-0.089209	-0.992192	-0.655376	0.744963	-0.124551	0.750257	0.661114	0.006463
19902	-9.742620	-1.243610	0.136606	0.022607	0.006025	-0.004110	0.876911	0.377857	-0.083449	0.087131	-0.089280	-0.992188	-0.655203	0.745109	-0.124585	0.750412	0.660939	0.006426
19903	-9.755710	-1.125090	0.077004	0.015090	0.003714	-0.008228	0.882973	0.371933	-0.085734	0.087205	-0.089376	-0.992173	-0.654988	0.745278	-0.124704	0.750590	0.660737	0.006452
19904	-9.751580	-1.179990	0.076987	0.011328	0.006529	-0.001460	0.883331	0.372487	-0.087444	0.087159	-0.089430	-0.992172	-0.654902	0.745352	-0.124714	0.750671	0.660645	0.006397
19905	-9.780770	-1.149470	0.145405	0.014220	0.004525	-0.010127	0.887868	0.373386	-0.084930	0.087160	-0.089387	-0.992176	-0.654667	0.745565	-0.124680	0.750876	0.660412	0.006465
19906	-9.688070	-1.208950	0.167461	0.004735	0.007789	-0.008375	0.883173	0.376947	-0.084358	0.087150	-0.089500	-0.992167	-0.654623	0.745590	-0.124758	0.750915	0.660368	0.006389
19907	-9.698070	-1.166950	0.134317	0.000778	0.010133	-0.008994	0.886796	0.371395	-0.074880	0.087138	-0.089562	-0.992162	-0.654513	0.745681	-0.124795	0.751013	0.660257	0.006357
19908	-9.646420	-1.263230	-0.009212	-0.003257	0.004579	-0.005510	0.884380	0.374561	-0.084618	0.087133	-0.089632	-0.992156	-0.654532	0.745655	-0.124845	0.750997	0.660276	0.006304
19909	-9.677400	-1.321180	-0.057665	0.001174	0.005779	-0.005991	0.885464	0.371985	-0.079698	0.087043	-0.089746	-0.992154	-0.654520	0.745661	-0.124871	0.751017	0.660254	0.006165
19910	-9.734770	-1.260290	-0.032448	0.010683	0.006032	-0.007147	0.880691	0.375239	-0.080470	0.087038	-0.089837	-0.992146	-0.654433	0.745727	-0.124936	0.751094	0.660167	0.006114
19911	-9.745920	-1.217390	0.046621	0.006475	0.006170	-0.004571	0.882529	0.368962	-0.083813	0.086983	-0.089942	-0.992141	-0.654349	0.745793	-0.124977	0.751173	0.660078	0.006018
19912	-9.724670	-1.281780	0.084109	0.013322	0.004471	-0.006733	0.888819	0.369286	-0.080913	0.086986	-0.090020	-0.992134	-0.654243	0.745876	-0.125037	0.751265	0.659973	0.005986
19913	-9.691720	-1.158820	0.163127	0.013567	0.009325	-0.004044	0.878351	0.373367	-0.078666	0.086773	-0.090035	-0.992151	-0.654135	0.745993	-0.124907	0.751384	0.659840	0.005837
19914	-9.726800	-1.162360	0.114172	-0.004127	0.005387	-0.007412	0.885972	0.376572	-0.080715	0.086773	-0.090124	-0.992143	-0.654159	0.745960	-0.124974	0.751363	0.659864	0.005773
19915	-9.712190	-1.305230	-0.023891	-0.000817	0.005193	-0.006598	0.877659	0.371982	-0.085407	0.086783	-0.090255	-0.992130	-0.654113	0.745983	-0.125079	0.751402	0.659820	0.005701
19916	-9.734290	-1.263900	-0.035546	0.007373	0.006229	-0.007958	0.883949	0.374065	-0.074395	0.086780	-0.090354	-0.992122	-0.654050	0.746026	-0.125151	0.751457	0.659758	0.005644
19917	-9.745470	-1.221110	0.043428	0.005604	0.006981	-0.006470	0.877502	0.372498	-0.083394	0.086739	-0.090471	-0.992115	-0.653961	0.746095	-0.125211	0.751539	0.659665	0.005551
19918	-9.757490	-1.222540	0.064285	0.006229	0.001317	-0.007256	0.883749	0.372624	-0.088774	0.086769	-0.090532	-0.992106	-0.653907	0.746131	-0.125277	0.751583	0.659616	0.005541
19919	-9.819060	-1.107240	0.089296	0.002492	0.004998	-0.005783	0.876317	0.374827	-0.074288	0.086763	-0.090469	-0.992113	-0.653748	0.746279	-0.125224	0.751722	0.659457	0.005605
19920	-9.768420	-1.202940	0.058018	-0.006339	0.003460	-0.010113	0.886411	0.375729	-0.084147	0.086795	-0.090565	-0.992101	-0.653786	0.746230	-0.125318	0.751685	0.659499	0.005559
19921	-9.700680	-1.308150	0.064355	0.000280	0.003073	-0.008484	0.879933	0.372469	-0.082884	0.086837	-0.090703	-0.992085	-0.653730	0.746257	-0.125449	0.751729	0.659449	0.005507
19922	-9.699790	-1.264620	0.122156	0.002964	0.008544	-0.006883	0.879823	0.371034	-0.073362	0.086810	-0.090809	-0.992078	-0.653701	0.746272	-0.125510	0.751757	0.659418	0.005422
19923	-9.681450	-1.275320	0.047093	-0.005897	0.006138	-0.005925	0.886175	0.370630	-0.084631	0.086732	-0.090940	-0.992072	-0.653737	0.746233	-0.125558	0.751735	0.659444	0.005272
19924	-9.680370	-1.254120	0.019769	-0.005248	0.003990	-0.006117	0.884794	0.372132	-0.075142	0.086734	-0.091010	-0.992066	-0.653770	0.746194	-0.125612	0.751706	0.659478	0.005221
19925	-9.732450	-1.248440	-0.066521	0.000951	0.004441	-0.008083	0.882051	0.372676	-0.083069	0.086623	-0.091086	-0.992068	-0.653765	0.746202	-0.125596	0.751723	0.659459	0.005090
19926	-9.715520	-1.236040	0.055813	0.008891	0.003274	-0.006246	0.877793	0.379397	-0.082507	0.086631	-0.091152	-0.992062	-0.653692	0.746256	-0.125650	0.751786	0.659388	0.005063
19927	-9.726540	-1.215830	0.049889	0.005831	0.005674	-0.010255	0.880184	0.370869	-0.074278	0.086715	-0.091229	-0.992047	-0.653514	0.746393	-0.125762	0.751931	0.659223	0.005104
19928	-9.755820	-1.185710	0.118231	0.002721	0.003690	-0.009569	0.881406	0.378425	-0.075661	0.086741	-0.091323	-0.992036	-0.653485	0.746404	-0.125850	0.751953	0.659197	0.005066
19929	-9.775910	-1.101300	0.053513	-0.005482	-0.003515	-0.014686	0.882602	0.376506	-0.084052	0.086831	-0.091545	-0.992008	-0.653535	0.746322	-0.126077	0.751899	0.659259	0.004976
19930	-9.788400	-1.170050	-0.068565	-0.009471	-0.002042	-0.010019	0.879471	0.380675	-0.078253	0.086903	-0.091605	-0.991996	-0.653597	0.746252	-0.126170	0.751837	0.659330	0.004979
19931	-9.785050	-1.247480	-0.041288	-0.006802	-0.002734	-0.014892	0.879635	0.378568	-0.079991	0.087108	-0.091711	-0.991968	-0.653526	0.746278	-0.126385	0.751875	0.659286	0.005071
19932	-9.773010	-1.225580	0.023021	-0.003962	-0.006471	-0.012977	0.885407	0.380489	-0.081002	0.087234	-0.091764	-0.991952	-0.653544	0.746242	-0.126507	0.751845	0.659320	0.005126
19933	-9.744660	-1.257240	0.066670	-0.005282	-0.005691	-0.013183	0.876865	0.376433	-0.078065	0.087442	-0.091857	-0.991925	-0.653477	0.746265	-0.126714	0.751879	0.659281	0.005228
19934	-9.720260	-1.257000	0.024726	-0.004163	-0.004293	-0.014476	0.878572	0.374432	-0.078684	0.087562	-0.091935	-0.991908	-0.653495	0.746226	-0.126852	0.751849	0.659314	0.005261
19935	-9.724310	-1.203960	0.024758	-0.008593	-0.005499	-0.013996	0.879794	0.376647	-0.081782	0.087706	-0.092057	-0.991884	-0.653497	0.746192	-0.127039	0.751831	0.659335	0.005286
19936	-9.684780	-1.256770	0.073907	-0.006824	-0.006248	-0.015482	0.883884	0.372060	-0.076687	0.087847	-0.092130	-0.991864	-0.653534	0.746135	-0.127187	0.751782	0.659390	0.005335
19937	-9.685340	-1.302350	0.016015	-0.001303	-0.004513	-0.011967	0.879863	0.371753	-0.078373	0.087898	-0.092204	-0.991853	-0.653512	0.746138	-0.127276	0.751795	0.659376	0.005328
19938	-9.702230	-1.294370	-0.021045	0.001365	-0.005203	-0.016839	0.887197	0.373326	-0.078009	0.088040	-0.092294	-0.991832	-0.653487	0.746133	-0.127437	0.751801	0.659369	0.005377
19939	-9.740690	-1.200240	-0.010673	0.002437	-0.008190	-0.013439	0.881831	0.372413	-0.085514	0.088057	-0.092360	-0.991824	-0.653481	0.746127	-0.127498	0.751803	0.659366	0.005346
19940	-9.759490	-1.235990	0.006110	0.000025	-0.007938	-0.017637	0.879457	0.377473	-0.083016	0.088224	-0.092438	-0.991802	-0.653465	0.746113	-0.127667	0.751798	0.659372	0.005420
19941	-9.754280	-1.247800	0.065601	-0.000424	-0.007968	-0.015943	0.882437	0.377066	-0.086203	0.088369	-0.092408	-0.991792	-0.653352	0.746200	-0.127740	0.751879	0.659277	0.005566
19942	-9.735340	-1.192590	0.135457	-0.002194	-0.007219	-0.014456	0.878486	0.374821	-0.076339	0.088510	-0.092466	-0.991774	-0.653355	0.746174	-0.127876	0.751860	0.659298	0.005631
19943	-9.754120	-1.228250	0.152213	-0.007293	-0.009795	-0.014375	0.875675	0.378799	-0.077104	0.088660	-0.092493	-0.991758	-0.653334	0.746172	-0.127995	0.751860	0.659297	0.005727
19944	-9.712440	-1.259740	0.062877	-0.016784	-0.006549	-0.012626	0.879685	0.378150	-0.075855	0.088784	-0.092542	-0.991743	-0.653448	0.746051	-0.128115	0.751746	0.659427	0.005766
19945	-9.718190	-1.272760	0.031649	-0.011943	-0.012339	-0.015985	0.884766	0.369434	-0.079323	0.089018	-0.092698	-0.991707	-0.653494	0.745964	-0.128387	0.751679	0.659503	0.005827
19946	-9.687890	-1.260900	0.021928	-0.012356	-0.005339	-0.013104	0.888197	0.371940	-0.074831	0.089136	-0.092759	-0.991691	-0.653574	0.745872	-0.128512	0.751595	0.659599	0.005859
19947	-9.703050	-1.395090	-0.019779	-0.006607	-0.004908	-0.013379	0.879610	0.371307	-0.078997	0.089024	-0.092849	-0.991692	-0.653706	0.745758	-0.128506	0.751494	0.659715	0.005694
19948	-9.667740	-1.393120	0.028758	0.011752	0.000427	-0.009620	0.875314	0.377869	-0.079126	0.089075	-0.092923	-0.991681	-0.653609	0.745828	-0.128594	0.751573	0.659626	0.005699
19949	-9.665310	-1.283680	0.118825	0.011972	0.001765	-0.007527	0.882090	0.383999	-0.082142	0.089066	-0.093013	-0.991673	-0.653481	0.745929	-0.128655	0.751685	0.659498	0.005655
19950	-9.664310	-1.262600	0.092058	0.004233	0.000744	-0.007857	0.883896	0.375665	-0.071973	0.089103	-0.093075	-0.991664	-0.653442	0.745951	-0.128726	0.751714	0.659465	0.005647
19951	-9.665820	-1.329320	0.060416	0.003784	0.000713	-0.006165	0.882145	0.386434	-0.084130	0.089143	-0.093226	-0.991646	-0.653397	0.745966	-0.128866	0.751748	0.659427	0.005584
19952	-9.727800	-1.214220	0.085937	0.005757	-0.002212	-0.006152	0.883535	0.382061	-0.079219	0.089191	-0.093257	-0.991639	-0.653348	0.746000	-0.128921	0.751785	0.659384	0.005607
19953	-9.705370	-1.256680	0.096915	0.000710	0.005755	-0.004291	0.877114	0.371472	-0.079165	0.089304	-0.093356	-0.991620	-0.653224	0.746083	-0.129068	0.751880	0.659276	0.005646
19954	-9.754120	-1.327210	0.037941	0.001794	0.000123	-0.006770	0.886100	0.380882	-0.073826	0.089339	-0.093406	-0.991612	-0.653204	0.746090	-0.129129	0.751893	0.659261	0.005641
19955	-9.733540	-1.227440	0.053563	0.003335	0.000683	-0.004472	0.883265	0.375716	-0.081029	0.089290	-0.093524	-0.991605	-0.653194	0.746089	-0.129185	0.751907	0.659246	0.005529
19956	-9.740310	-1.261440	0.048301	0.000473	0.000902	-0.006976	0.881989	0.383068	-0.086989	0.089320	-0.093582	-0.991597	-0.653184	0.746087	-0.129248	0.751913	0.659240	0.005514
19957	-9.764200	-1.286030	0.005582	0.002218	-0.000717	-0.003179	0.883065	0.373087	-0.080998	0.089373	-0.093534	-0.991597	-0.653059	0.746197	-0.129247	0.752015	0.659122	0.005607
19958	-9.747030	-1.295730	0.043029	0.002683	0.002830	-0.004278	0.880890	0.377466	-0.071902	0.089371	-0.093584	-0.991592	-0.653034	0.746212	-0.129283	0.752036	0.659098	0.005576
19959	-9.722110	-1.250340	0.058731	0.007559	0.004072	-0.006451	0.882922	0.382310	-0.087604	0.089283	-0.093729	-0.991586	-0.653001	0.746232	-0.129334	0.752076	0.659055	0.005421
19960	-9.717040	-1.260820	0.117204	0.005096	0.002580	-0.000081	0.874625	0.383712	-0.083123	0.089256	-0.093746	-0.991587	-0.652963	0.746267	-0.129328	0.752112	0.659013	0.005396
19961	-9.699650	-1.292880	0.069445	0.004452	0.002082	-0.005764	0.877003	0.379450	-0.077931	0.089427	-0.093739	-0.991572	-0.652750	0.746435	-0.129434	0.752277	0.658823	0.005563
19962	-9.688400	-1.314290	0.074831	0.000244	0.002208	-0.003191	0.883555	0.380007	-0.082175	0.089423	-0.093776	-0.991569	-0.652744	0.746435	-0.129460	0.752282	0.658818	0.005537
19963	-9.717570	-1.306150	0.058277	0.002683	0.002830	-0.004278	0.878996	0.378325	-0.081171	0.089460	-0.093852	-0.991559	-0.652655	0.746499	-0.129540	0.752356	0.658734	0.005529
19964	-9.698620	-1.272160	0.041964	0.004892	0.004758	-0.001580	0.876620	0.382386	-0.075161	0.089427	-0.093894	-0.991558	-0.652616	0.746532	-0.129550	0.752393	0.658691	0.005483
19965	-9.715710	-1.263060	0.004087	0.006662	0.004011	-0.003066	0.875336	0.379172	-0.076853	0.089472	-0.094016	-0.991542	-0.652502	0.746610	-0.129671	0.752486	0.658585	0.005455
19966	-9.698560	-1.272620	0.041169	0.002250	0.006314	-0.001993	0.883091	0.382269	-0.076931	0.089430	-0.094072	-0.991541	-0.652483	0.746624	-0.129685	0.752508	0.658561	0.005390
19967	-9.728620	-1.286320	0.051245	0.010202	0.002517	-0.006036	0.881221	0.375221	-0.084850	0.089492	-0.094231	-0.991520	-0.652360	0.746704	-0.129845	0.752607	0.658448	0.005351
19968	-9.703730	-1.240860	0.066919	0.009768	0.006002	-0.003751	0.879339	0.384319	-0.073604	0.089464	-0.094299	-0.991516	-0.652283	0.746766	-0.129877	0.752677	0.658368	0.005299
19969	-9.750920	-1.245120	0.039429	-0.001525	0.002955	-0.001706	0.881375	0.373786	-0.075322	0.089473	-0.094365	-0.991509	-0.652238	0.746795	-0.129932	0.752715	0.658326	0.005270
19970	-9.733480	-1.277330	-0.008449	-0.000179	0.003047	-0.006782	0.880431	0.387038	-0.081870	0.089488	-0.094435	-0.991501	-0.652233	0.746789	-0.129995	0.752718	0.658323	0.005234
19971	-9.733410	-1.277900	-0.008641	0.007763	0.001896	-0.004949	0.879148	0.385488	-0.075795	0.089528	-0.094533	-0.991488	-0.652121	0.746869	-0.130094	0.752810	0.658217	0.005218
19972	-9.749820	-1.224910	0.012048	0.004901	0.002113	-0.007454	0.880554	0.378611	-0.085910	0.089554	-0.094603	-0.991479	-0.652077	0.746895	-0.130164	0.752845	0.658177	0.005199
19973	-9.755930	-1.214700	0.065079	0.000025	0.000870	-0.005283	0.880302	0.372944	-0.080246	0.089657	-0.094660	-0.991464	-0.651979	0.746962	-0.130274	0.752917	0.658094	0.005254
19974	-9.746150	-1.302390	0.039101	0.003565	-0.000624	-0.008252	0.881337	0.376413	-0.085693	0.089709	-0.094718	-0.991454	-0.651944	0.746979	-0.130351	0.752941	0.658067	0.005260
19975	-9.722180	-1.278710	0.081970	0.003091	-0.001525	-0.001278	0.875758	0.380316	-0.083886	0.089646	-0.094625	-0.991468	-0.651872	0.747061	-0.130239	0.753011	0.657986	0.005288
19976	-9.710940	-1.299910	0.087599	-0.000424	0.000839	-0.003591	0.874808	0.376177	-0.088235	0.089657	-0.094657	-0.991464	-0.651872	0.747056	-0.130271	0.753011	0.657987	0.005275
19977	-9.676380	-1.341420	0.077373	-0.000628	0.003016	-0.005090	0.877705	0.377027	-0.077452	0.089728	-0.094594	-0.991464	-0.651727	0.747182	-0.130269	0.753127	0.657853	0.005394
19978	-9.704650	-1.311530	0.034143	0.004208	-0.000125	-0.002570	0.875610	0.377403	-0.072091	0.089740	-0.094611	-0.991461	-0.651692	0.747209	-0.130290	0.753156	0.657820	0.005397
19979	-9.727650	-1.314050	-0.035345	0.004427	0.001214	-0.000479	0.881267	0.375364	-0.075881	0.089700	-0.094732	-0.991453	-0.651663	0.747223	-0.130354	0.753186	0.657787	0.005292
19980	-9.755340	-1.239630	-0.020038	0.006851	-0.001680	-0.002156	0.885725	0.377386	-0.081909	0.089720	-0.094737	-0.991451	-0.651609	0.747268	-0.130371	0.753230	0.657735	0.005314
19981	-9.750310	-1.249860	0.038874	0.007070	-0.000341	-0.000065	0.882478	0.385122	-0.080718	0.089629	-0.094740	-0.991459	-0.651556	0.747325	-0.130313	0.753287	0.657670	0.005254
19982	-9.727000	-1.270090	0.023499	0.008172	-0.002457	-0.001948	0.877892	0.380810	-0.081088	0.089654	-0.094738	-0.991457	-0.651491	0.747378	-0.130327	0.753340	0.657610	0.005284
19983	-9.733150	-1.259510	0.076925	0.001551	-0.002086	-0.003575	0.883129	0.379611	-0.072666	0.089776	-0.094769	-0.991443	-0.651378	0.747459	-0.130430	0.753424	0.657514	0.005373
19984	-9.715710	-1.291600	0.029713	0.007504	-0.003826	-0.002347	0.881763	0.378645	-0.075208	0.089814	-0.094761	-0.991440	-0.651318	0.747507	-0.130449	0.753470	0.657459	0.005417
19985	-9.693270	-1.333700	0.041187	0.015256	0.000718	-0.001421	0.881228	0.385707	-0.077586	0.089764	-0.094907	-0.991431	-0.651229	0.747573	-0.130525	0.753554	0.657364	0.005299
19986	-9.714150	-1.226060	0.061759	0.011507	-0.001774	-0.006416	0.877548	0.377257	-0.080143	0.089812	-0.094943	-0.991423	-0.651135	0.747643	-0.130584	0.753629	0.657279	0.005327
19987	-9.720880	-1.259960	0.056892	0.004861	-0.002271	-0.002761	0.879199	0.382910	-0.079530	0.089894	-0.094998	-0.991410	-0.651034	0.747716	-0.130678	0.753707	0.657189	0.005368
19988	-9.726750	-1.271900	0.025367	0.001088	-0.005632	-0.002473	0.877828	0.380033	-0.082721	0.089947	-0.094980	-0.991407	-0.651022	0.747722	-0.130699	0.753710	0.657184	0.005421
19989	-9.766550	-1.198340	0.062199	-0.002003	-0.004108	-0.001197	0.871001	0.369368	-0.074486	0.090048	-0.094964	-0.991400	-0.650947	0.747777	-0.130753	0.753763	0.657123	0.005519
19990	-9.768010	-1.264640	0.031309	-0.004674	-0.009585	-0.002792	0.881777	0.377308	-0.076020	0.090133	-0.094923	-0.991396	-0.650979	0.747745	-0.130778	0.753725	0.657166	0.005604
19991	-9.762070	-1.253140	0.063929	-0.000682	-0.004885	-0.000989	0.877738	0.370387	-0.083640	0.090062	-0.094965	-0.991398	-0.651015	0.747717	-0.130763	0.753703	0.657192	0.005517
19992	-9.709510	-1.282010	0.065241	-0.006869	-0.008000	-0.004897	0.884702	0.378478	-0.079840	0.090148	-0.094949	-0.991392	-0.651061	0.747668	-0.130808	0.753653	0.657249	0.005583
19993	-9.704180	-1.314870	0.039409	-0.002452	-0.004138	0.000495	0.877765	0.378353	-0.077597	0.090074	-0.094855	-0.991408	-0.651054	0.747696	-0.130688	0.753668	0.657232	0.005592
19994	-9.687650	-1.368540	0.019036	0.001756	-0.004262	-0.002075	0.886388	0.381263	-0.083373	0.090113	-0.094843	-0.991405	-0.651038	0.747707	-0.130705	0.753677	0.657221	0.005632
19995	-9.692050	-1.314350	0.019085	0.013252	-0.003387	-0.002620	0.881299	0.381475	-0.079035	0.090148	-0.094842	-0.991402	-0.650886	0.747836	-0.130726	0.753804	0.657075	0.005685
19996	-9.691400	-1.270210	0.077792	0.010161	-0.001863	-0.001343	0.880441	0.386422	-0.072263	0.090165	-0.094840	-0.991401	-0.650808	0.747902	-0.130735	0.753870	0.656999	0.005712
19997	-9.702600	-1.249350	0.072589	0.007055	-0.003855	-0.000655	0.880196	0.382610	-0.080796	0.090259	-0.094951	-0.991382	-0.650720	0.747953	-0.130880	0.753934	0.656925	0.005723
19998	-9.750690	-1.275210	0.072794	0.002629	-0.005070	-0.000175	0.881324	0.377725	-0.076437	0.090292	-0.094919	-0.991382	-0.650699	0.747971	-0.130878	0.753948	0.656909	0.005772
19999	-9.708500	-1.261170	0.041760	-0.002017	-0.007623	-0.001785	0.873715	0.373262	-0.081899	0.090361	-0.094926	-0.991375	-0.650677	0.747982	-0.130928	0.753959	0.656896	0.005822
20000	-9.715270	-1.294730	0.037229	0.002629	-0.005069	-0.000175	0.880684	0.377871	-0.075367	0.090394	-0.094895	-0.991375	-0.650656	0.748000	-0.130927	0.753973	0.656879	0.005871
20001	-9.768670	-1.287840	0.063718	0.001527	-0.002953	0.001708	0.881105	0.378265	-0.080060	0.090346	-0.094879	-0.991381	-0.650628	0.748032	-0.130883	0.754003	0.656845	0.005851
20002	-9.720790	-1.239400	0.149573	-0.000028	-0.007031	-0.001178	0.878885	0.377867	-0.087978	0.090401	-0.094843	-0.991379	-0.650627	0.748032	-0.130891	0.753998	0.656851	0.005915
20003	-9.728200	-1.317330	0.086676	0.003744	-0.003670	-0.001468	0.882631	0.374727	-0.084165	0.090430	-0.094754	-0.991385	-0.650517	0.748136	-0.130843	0.754089	0.656745	0.006015
20004	-9.668020	-1.290760	0.066104	0.001975	-0.002923	0.000016	0.878029	0.378437	-0.082545	0.090446	-0.094736	-0.991385	-0.650501	0.748151	-0.130839	0.754101	0.656731	0.006042
20005	-9.683660	-1.215420	0.060492	-0.005109	-0.006099	-0.000506	0.879788	0.375107	-0.079273	0.090453	-0.094630	-0.991395	-0.650480	0.748183	-0.130763	0.754118	0.656710	0.006121
20006	-9.709950	-1.327560	0.013586	-0.006430	-0.005322	-0.000713	0.883184	0.380338	-0.085747	0.090491	-0.094600	-0.991394	-0.650527	0.748141	-0.130767	0.754073	0.656761	0.006160
20007	-9.733240	-1.307450	0.029668	-0.003119	-0.005507	0.000099	0.883619	0.380850	-0.086585	0.090498	-0.094519	-0.991401	-0.650497	0.748177	-0.130709	0.754098	0.656732	0.006224
20008	-9.750610	-1.275540	0.077677	-0.004889	-0.004760	0.001584	0.881962	0.374521	-0.080309	0.090517	-0.094476	-0.991404	-0.650534	0.748148	-0.130690	0.754064	0.656772	0.006261
20009	-9.723740	-1.371760	0.089656	-0.002451	-0.004138	0.000497	0.886143	0.379468	-0.075082	0.090504	-0.094382	-0.991414	-0.650496	0.748195	-0.130610	0.754098	0.656731	0.006319
20010	-9.715470	-1.271960	0.126579	0.003737	-0.001022	0.004403	0.887643	0.373571	-0.076334	0.090477	-0.094342	-0.991420	-0.650471	0.748225	-0.130562	0.754123	0.656702	0.006330
20011	-9.720610	-1.261490	0.068062	-0.004668	-0.003421	0.003674	0.879833	0.373878	-0.076056	0.090346	-0.094366	-0.991430	-0.650564	0.748156	-0.130495	0.754058	0.656778	0.006202
20012	-9.680030	-1.313050	0.005158	-0.007106	-0.004043	0.004761	0.877721	0.379217	-0.077046	0.090339	-0.094304	-0.991436	-0.650621	0.748115	-0.130444	0.754010	0.656834	0.006227
20013	-9.709330	-1.304110	-0.010809	0.001954	-0.003791	0.005298	0.865826	0.373889	-0.080949	0.090279	-0.094307	-0.991441	-0.650618	0.748125	-0.130406	0.754020	0.656822	0.006183
20014	-9.708710	-1.259320	0.047870	0.004391	-0.003169	0.004211	0.882668	0.380925	-0.083496	0.090268	-0.094255	-0.991447	-0.650588	0.748159	-0.130360	0.754047	0.656791	0.006214
20015	-9.726100	-1.227080	0.095740	-0.002679	-0.002829	0.004280	0.876856	0.380873	-0.082731	0.090292	-0.094176	-0.991453	-0.650526	0.748220	-0.130316	0.754098	0.656732	0.006295
20016	-9.726990	-1.248490	0.122955	-0.004684	-0.006936	0.003086	0.885269	0.378568	-0.082202	0.090317	-0.094107	-0.991457	-0.650563	0.748194	-0.130281	0.754062	0.656772	0.006352
20017	-9.721770	-1.280800	0.096773	-0.007296	0.001649	0.003851	0.879321	0.375288	-0.076824	0.090298	-0.094065	-0.991463	-0.650547	0.748216	-0.130236	0.754079	0.656753	0.006368
20018	-9.704490	-1.312260	0.049209	-0.004669	-0.003420	0.003675	0.881312	0.373909	-0.084226	0.090292	-0.094015	-0.991468	-0.650585	0.748190	-0.130195	0.754047	0.656789	0.006391
20019	-9.722550	-1.324380	0.038640	0.002416	-0.000246	0.004196	0.879401	0.382701	-0.077478	0.090188	-0.093960	-0.991483	-0.650551	0.748239	-0.130085	0.754088	0.656742	0.006356
20020	-9.692540	-1.310580	0.028218	0.001969	-0.000276	0.005888	0.885015	0.372659	-0.080553	0.090145	-0.093914	-0.991491	-0.650541	0.748259	-0.130021	0.754102	0.656726	0.006356
20021	-9.715870	-1.290000	0.043891	0.004853	0.000376	0.003108	0.880758	0.384640	-0.075064	0.090081	-0.093919	-0.991496	-0.650488	0.748311	-0.129983	0.754155	0.656666	0.006315
20022	-9.721190	-1.256890	0.070277	0.003958	0.000316	0.006493	0.883667	0.375305	-0.081835	0.090029	-0.093873	-0.991505	-0.650463	0.748345	-0.129913	0.754183	0.656634	0.006312
20023	-9.726500	-1.223800	0.096831	0.004838	-0.003139	0.002519	0.874184	0.375682	-0.088381	0.090038	-0.093885	-0.991503	-0.650398	0.748399	-0.129928	0.754238	0.656570	0.006322
20024	-9.727430	-1.244990	0.123823	0.001073	-0.000336	0.009272	0.887473	0.384695	-0.081185	0.089973	-0.093813	-0.991516	-0.650398	0.748416	-0.129831	0.754246	0.656561	0.006321
20025	-9.743090	-1.169170	0.117938	-0.005095	-0.002582	0.000085	0.888113	0.369713	-0.086801	0.090040	-0.093734	-0.991517	-0.650327	0.748480	-0.129815	0.754299	0.656499	0.006435
20026	-9.732600	-1.234320	0.065417	-0.007980	-0.003233	0.002864	0.874585	0.381731	-0.084645	0.090039	-0.093691	-0.991522	-0.650389	0.748432	-0.129782	0.754246	0.656560	0.006452
20027	-9.740160	-1.311900	0.002172	-0.007533	-0.003203	0.001172	0.876678	0.373219	-0.085027	0.090022	-0.093553	-0.991536	-0.650364	0.748474	-0.129666	0.754269	0.656533	0.006535
20028	-9.722140	-1.299360	0.013117	0.000653	-0.002146	-0.000191	0.879629	0.381223	-0.082682	0.090032	-0.093539	-0.991536	-0.650358	0.748480	-0.129663	0.754273	0.656528	0.006553
20029	-9.727380	-1.266750	0.039656	-0.000669	-0.001369	-0.000398	0.879287	0.378986	-0.077377	0.090058	-0.093476	-0.991540	-0.650275	0.748558	-0.129631	0.754342	0.656448	0.006628
20030	-9.727390	-1.266630	0.039886	-0.000911	-0.003575	0.002795	0.876120	0.382157	-0.072708	0.090059	-0.093430	-0.991544	-0.650283	0.748556	-0.129598	0.754335	0.656456	0.006658
20031	-9.704140	-1.286630	0.024616	0.003295	-0.003701	0.000222	0.875944	0.372460	-0.085619	0.090123	-0.093529	-0.991529	-0.650238	0.748575	-0.129714	0.754366	0.656421	0.006647
20032	-9.729100	-1.310130	0.093947	0.003553	0.002020	-0.002382	0.881031	0.375116	-0.078175	0.090116	-0.093560	-0.991527	-0.650208	0.748598	-0.129733	0.754393	0.656390	0.006627
20033	-9.704240	-1.264340	0.110095	0.007706	-0.006003	-0.000850	0.885926	0.377078	-0.077837	0.090106	-0.093481	-0.991535	-0.650112	0.748693	-0.129665	0.754476	0.656293	0.006689
20034	-9.703390	-1.242510	0.083586	0.000221	0.001339	0.002090	0.885842	0.374641	-0.068593	0.090076	-0.093473	-0.991539	-0.650112	0.748698	-0.129639	0.754481	0.656288	0.006671
20035	-9.720560	-1.233250	0.046137	-0.000890	-0.002708	-0.002488	0.885511	0.375405	-0.084659	0.089992	-0.093588	-0.991536	-0.650189	0.748625	-0.129672	0.754424	0.656355	0.006520
20036	-9.726490	-1.245230	0.014485	-0.004870	-0.003890	-0.003697	0.877982	0.378991	-0.079133	0.090038	-0.093590	-0.991531	-0.650221	0.748592	-0.129704	0.754391	0.656393	0.006547
20037	-9.726450	-1.245520	0.014661	-0.001543	-0.000561	-0.002297	0.875092	0.377260	-0.082635	0.090033	-0.093575	-0.991533	-0.650177	0.748632	-0.129689	0.754429	0.656349	0.006561
20038	-9.732500	-1.234990	0.068020	-0.001111	-0.004046	-0.004578	0.871954	0.378965	-0.081578	0.090086	-0.093583	-0.991527	-0.650181	0.748622	-0.129729	0.754420	0.656359	0.006595
20039	-9.709170	-1.255610	0.052619	-0.005075	-0.001714	-0.005197	0.880779	0.383831	-0.079995	0.090192	-0.093594	-0.991517	-0.650120	0.748662	-0.129806	0.754460	0.656312	0.006676
20040	-9.715910	-1.289570	0.047719	-0.003101	-0.004637	-0.005182	0.887201	0.374840	-0.081636	0.090253	-0.093602	-0.991511	-0.650138	0.748638	-0.129853	0.754437	0.656338	0.006713
20041	-9.694170	-1.376070	0.000662	0.005095	0.002582	-0.000086	0.873836	0.381487	-0.078329	0.090222	-0.093620	-0.991512	-0.650053	0.748713	-0.129846	0.754514	0.656250	0.006692
20042	-9.693420	-1.331960	0.058886	0.016817	0.002146	-0.004422	0.879812	0.373892	-0.082531	0.090227	-0.093667	-0.991507	-0.649921	0.748821	-0.129883	0.754627	0.656120	0.006688
20043	-9.728020	-1.268350	0.153966	0.009949	0.002958	0.003022	0.882153	0.376896	-0.079566	0.090199	-0.093670	-0.991509	-0.649790	0.748938	-0.129866	0.754743	0.655987	0.006688
20044	-9.715980	-1.267410	0.132641	0.004427	0.001213	-0.000483	0.881242	0.380299	-0.077569	0.090186	-0.093681	-0.991509	-0.649755	0.748968	-0.129865	0.754775	0.655950	0.006677
20045	-9.715120	-1.245800	0.105807	0.002884	0.000652	-0.002780	0.882648	0.373382	-0.080388	0.090182	-0.093743	-0.991504	-0.649706	0.749003	-0.129910	0.754818	0.655901	0.006641
20046	-9.721900	-1.279470	0.100651	0.000447	0.000030	-0.001692	0.884922	0.382515	-0.084261	0.090186	-0.093756	-0.991502	-0.649700	0.749007	-0.129922	0.754822	0.655896	0.006637
20047	-9.721090	-1.257500	0.073733	-0.000005	0.002648	0.005872	0.882226	0.380377	-0.069944	0.090100	-0.093694	-0.991516	-0.649651	0.749066	-0.129818	0.754874	0.655836	0.006622
20048	-9.714990	-1.268390	0.020431	-0.001969	0.000275	-0.005888	0.889898	0.380661	-0.079680	0.090129	-0.093739	-0.991509	-0.649660	0.749050	-0.129871	0.754863	0.655849	0.006612
20049	-9.714960	-1.268610	0.020466	-0.001116	-0.001399	0.001294	0.887918	0.376734	-0.081155	0.090099	-0.093827	-0.991503	-0.649684	0.749021	-0.129918	0.754846	0.655869	0.006528
20050	-9.680480	-1.309700	0.010546	-0.002658	-0.001961	-0.001002	0.886110	0.383936	-0.076925	0.090113	-0.093821	-0.991502	-0.649702	0.749004	-0.129923	0.754829	0.655889	0.006539
20051	-9.739790	-1.314590	0.004862	0.001321	-0.000777	0.000207	0.877834	0.381701	-0.084400	0.090093	-0.093844	-0.991502	-0.649666	0.749035	-0.129927	0.754863	0.655850	0.006515
20052	-9.739060	-1.270370	0.063343	0.004858	-0.002272	-0.002764	0.885144	0.379375	-0.085577	0.090121	-0.093850	-0.991499	-0.649625	0.749066	-0.129949	0.754894	0.655814	0.006539
20053	-9.716590	-1.312560	0.074643	0.008632	0.001088	-0.003056	0.880070	0.381964	-0.087584	0.090179	-0.093816	-0.991497	-0.649449	0.749218	-0.129960	0.755039	0.655646	0.006636
20054	-9.691030	-1.222420	0.148715	0.010843	0.003019	-0.000362	0.875686	0.380319	-0.083920	0.090152	-0.093838	-0.991497	-0.649365	0.749290	-0.129958	0.755114	0.655560	0.006615
20055	-9.702950	-1.245870	0.084695	-0.004632	0.000962	-0.001018	0.880337	0.370111	-0.075417	0.090238	-0.093784	-0.991495	-0.649266	0.749373	-0.129973	0.755189	0.655473	0.006731
20056	-9.709610	-1.302020	-0.005520	-0.002658	-0.001961	-0.001002	0.881540	0.383831	-0.083228	0.090253	-0.093778	-0.991494	-0.649284	0.749357	-0.129978	0.755172	0.655492	0.006743
20057	-9.738130	-1.249260	0.036590	0.001321	-0.000777	0.000207	0.878049	0.378174	-0.067073	0.090221	-0.093782	-0.991496	-0.649249	0.749390	-0.129960	0.755206	0.655453	0.006723
20058	-9.720960	-1.258420	0.073993	-0.002422	0.002893	0.001676	0.886033	0.376603	-0.083814	0.090182	-0.093788	-0.991499	-0.649268	0.749378	-0.129939	0.755194	0.655467	0.006687
20059	-9.727770	-1.291910	0.068714	-0.001543	-0.000562	-0.002297	0.878942	0.381722	-0.086067	0.090148	-0.093877	-0.991494	-0.649290	0.749351	-0.129985	0.755179	0.655485	0.006599
20060	-9.728600	-1.313790	0.095432	0.005095	0.002583	-0.000085	0.877468	0.373407	-0.088389	0.090122	-0.093894	-0.991495	-0.649250	0.749386	-0.129981	0.755217	0.655442	0.006575
20061	-9.714150	-1.225070	0.078746	0.002658	0.001961	0.001002	0.880311	0.379328	-0.076892	0.090131	-0.093783	-0.991505	-0.649111	0.749520	-0.129900	0.755335	0.655305	0.006679
20062	-9.714860	-1.269410	0.020354	-0.003311	0.000185	-0.000812	0.878384	0.381981	-0.083165	0.090128	-0.093789	-0.991504	-0.649134	0.749500	-0.129904	0.755316	0.655327	0.006669
20063	-9.708760	-1.280290	-0.032745	0.004632	-0.000962	0.001019	0.883164	0.381822	-0.081271	0.090170	-0.093797	-0.991500	-0.649031	0.749584	-0.129936	0.755399	0.655230	0.006713
20064	-9.727760	-1.291960	0.068375	0.007532	0.003205	-0.001173	0.879190	0.373086	-0.076981	0.090147	-0.093826	-0.991499	-0.648971	0.749634	-0.129943	0.755453	0.655168	0.006687
20065	-9.727060	-1.247590	0.126561	0.005301	0.000407	0.001416	0.885066	0.381519	-0.082145	0.090106	-0.093832	-0.991502	-0.648905	0.749696	-0.129919	0.755516	0.655097	0.006664
20066	-9.696980	-1.234290	0.116083	0.000447	0.000030	-0.001692	0.878188	0.372588	-0.077467	0.090110	-0.093844	-0.991501	-0.648898	0.749699	-0.129931	0.755521	0.655091	0.006660
20067	-9.733000	-1.259430	0.094616	-0.003311	0.000185	-0.000812	0.883390	0.381983	-0.081390	0.090078	-0.093850	-0.991503	-0.648892	0.749707	-0.129915	0.755529	0.655081	0.006634
20068	-9.704460	-1.312290	0.052519	-0.002643	0.001554	-0.000414	0.880237	0.373835	-0.079400	0.090063	-0.093863	-0.991503	-0.648911	0.749691	-0.129915	0.755516	0.655097	0.006611
20069	-9.721780	-1.280500	0.099754	0.001131	0.004914	-0.000706	0.883525	0.373815	-0.077614	0.090011	-0.093893	-0.991505	-0.648859	0.749738	-0.129903	0.755566	0.655039	0.006561
20070	-9.679640	-1.266350	0.067774	-0.001769	0.000747	0.001485	0.878873	0.379851	-0.075949	0.089989	-0.093886	-0.991508	-0.648872	0.749730	-0.129883	0.755558	0.655049	0.006547
20071	-9.720960	-1.258510	0.072505	0.000889	0.002708	0.002487	0.880174	0.378681	-0.075021	0.089906	-0.093929	-0.991511	-0.648865	0.749740	-0.129861	0.755574	0.655032	0.006459
20072	-9.738160	-1.249090	0.034831	-0.003758	0.000155	0.000880	0.876955	0.380395	-0.078879	0.089892	-0.093923	-0.991513	-0.648892	0.749719	-0.129848	0.755551	0.655058	0.006448
20073	-9.704540	-1.311770	0.051365	0.001558	0.004077	0.002885	0.887474	0.375433	-0.076445	0.089862	-0.093986	-0.991510	-0.648848	0.749752	-0.129876	0.755593	0.655010	0.006392
20074	-9.715760	-1.290770	0.045455	0.004221	0.003390	-0.001984	0.872105	0.380079	-0.078086	0.089843	-0.094023	-0.991508	-0.648813	0.749780	-0.129890	0.755626	0.654973	0.006359
20075	-9.721030	-1.258070	0.071475	0.001557	0.004078	0.002885	0.886530	0.380372	-0.078090	0.089777	-0.094067	-0.991510	-0.648781	0.749809	-0.129880	0.755661	0.654933	0.006287
20076	-9.733810	-1.303080	0.034109	-0.000653	0.002146	0.000190	0.878810	0.372360	-0.074788	0.089752	-0.094079	-0.991511	-0.648785	0.749807	-0.129873	0.755660	0.654934	0.006260
20077	-9.757120	-1.282740	0.049464	0.004868	0.003893	0.003697	0.879006	0.379996	-0.077110	0.089637	-0.094115	-0.991518	-0.648755	0.749842	-0.129825	0.755700	0.654889	0.006156
20078	-9.731470	-1.214760	0.038162	0.003994	0.004699	0.001798	0.876268	0.377710	-0.078349	0.089583	-0.094132	-0.991521	-0.648725	0.749872	-0.129802	0.755732	0.654852	0.006110
20079	-9.727270	-1.246260	0.123251	-0.000211	0.004825	0.004370	0.876276	0.373324	-0.083177	0.089540	-0.094167	-0.991522	-0.648687	0.749905	-0.129800	0.755770	0.654809	0.006062
20080	-9.697930	-1.276930	0.053992	-0.003522	0.005011	0.003558	0.879635	0.379576	-0.078486	0.089472	-0.094173	-0.991527	-0.648715	0.749887	-0.129760	0.755754	0.654829	0.006003
20081	-9.681490	-1.330330	0.032942	-0.003758	0.000156	0.000880	0.877150	0.369309	-0.078199	0.089460	-0.094137	-0.991532	-0.648687	0.749918	-0.129725	0.755779	0.654799	0.006022
20082	-9.686770	-1.297580	0.058913	0.000031	0.007031	0.001177	0.880537	0.383359	-0.078391	0.089393	-0.094174	-0.991534	-0.648686	0.749921	-0.129709	0.755788	0.654790	0.005948
20083	-9.692070	-1.264640	0.084573	-0.000865	0.006972	0.004561	0.881977	0.386122	-0.074056	0.089288	-0.094193	-0.991542	-0.648666	0.749948	-0.129655	0.755818	0.654756	0.005862
20084	-9.704000	-1.287760	0.020066	0.001352	0.006254	0.001385	0.878261	0.386152	-0.078390	0.089225	-0.094223	-0.991545	-0.648655	0.749961	-0.129636	0.755834	0.654737	0.005797
20085	-9.786640	-1.272180	0.029266	0.004215	0.006039	0.003889	0.877903	0.382447	-0.073435	0.089271	-0.094326	-0.991531	-0.648550	0.750033	-0.129744	0.755919	0.654640	0.005781
20086	-9.743840	-1.213370	0.055391	0.003546	0.004670	0.003492	0.877637	0.379192	-0.074606	0.089207	-0.094331	-0.991536	-0.648525	0.750061	-0.129705	0.755948	0.654607	0.005735
20087	-9.708530	-1.232370	0.018046	-0.002854	0.006380	0.003956	0.877676	0.385051	-0.083601	0.089174	-0.094438	-0.991529	-0.648522	0.750054	-0.129764	0.755955	0.654599	0.005640
20088	-9.698250	-1.274690	0.049938	-0.000880	0.003457	0.003973	0.880900	0.372520	-0.075006	0.089116	-0.094431	-0.991535	-0.648530	0.750054	-0.129721	0.755954	0.654601	0.005600
20089	-9.717220	-1.308410	0.065513	0.001998	0.006757	0.007067	0.884685	0.382589	-0.073976	0.089039	-0.094418	-0.991543	-0.648463	0.750123	-0.129660	0.756021	0.654524	0.005563
20090	-9.687190	-1.294590	0.054512	-0.002202	0.004234	0.003765	0.885850	0.379378	-0.083379	0.088977	-0.094418	-0.991548	-0.648482	0.750113	-0.129620	0.756012	0.654534	0.005514
20091	-9.686370	-1.272410	0.027136	0.001125	0.007564	0.005168	0.887219	0.376740	-0.077863	0.088897	-0.094440	-0.991554	-0.648424	0.750169	-0.129583	0.756071	0.654467	0.005450
20092	-9.745080	-1.232360	0.078866	0.002445	0.006787	0.005376	0.874716	0.375700	-0.078415	0.088805	-0.094444	-0.991561	-0.648409	0.750192	-0.129526	0.756095	0.654440	0.005382
20093	-9.738110	-1.221000	-0.001542	-0.003318	0.002836	0.005059	0.880803	0.367650	-0.077327	0.088718	-0.094419	-0.991572	-0.648408	0.750206	-0.129450	0.756106	0.654427	0.005334
20094	-9.732920	-1.253090	-0.028293	0.001329	0.005388	0.006670	0.884332	0.381868	-0.079131	0.088628	-0.094404	-0.991581	-0.648402	0.750223	-0.129380	0.756121	0.654410	0.005278
20095	-9.738480	-1.197260	0.082720	0.002430	0.003271	0.004787	0.883791	0.376335	-0.077665	0.088508	-0.094372	-0.991595	-0.648368	0.750271	-0.129277	0.756165	0.654360	0.005217
20096	-9.733280	-1.229460	0.055939	0.000456	0.006195	0.004770	0.879435	0.380993	-0.079234	0.088424	-0.094377	-0.991602	-0.648367	0.750280	-0.129226	0.756175	0.654349	0.005152
20097	-9.741040	-1.284350	0.077142	-0.002422	0.002895	0.001675	0.879996	0.374960	-0.072078	0.088399	-0.094383	-0.991603	-0.648335	0.750310	-0.129214	0.756206	0.654314	0.005135
20098	-9.717150	-1.259810	0.119243	0.001793	0.008934	0.005568	0.882556	0.375645	-0.077610	0.088289	-0.094400	-0.991612	-0.648325	0.750329	-0.129155	0.756227	0.654290	0.005044
20099	-9.722240	-1.249250	0.059879	-0.004640	0.003615	0.004851	0.880733	0.376474	-0.075144	0.088176	-0.094422	-0.991620	-0.648363	0.750306	-0.129098	0.756208	0.654313	0.004939
20100	-9.676420	-1.333440	-0.030227	-0.003955	0.008500	0.005840	0.882420	0.369207	-0.081376	0.088068	-0.094434	-0.991628	-0.648396	0.750288	-0.129036	0.756192	0.654332	0.004845
20101	-9.705720	-1.324300	-0.047297	0.005307	0.006571	0.007885	0.876734	0.381608	-0.074625	0.087890	-0.094385	-0.991649	-0.648345	0.750359	-0.128882	0.756257	0.654258	0.004755
20102	-9.692390	-1.234070	0.047525	0.009066	0.006413	0.007007	0.880827	0.381025	-0.079620	0.087790	-0.094374	-0.991658	-0.648281	0.750427	-0.128808	0.756323	0.654181	0.004699
20103	-9.727840	-1.214130	0.083672	0.003563	0.008185	0.004085	0.880679	0.368225	-0.081726	0.087772	-0.094430	-0.991655	-0.648187	0.750503	-0.128838	0.756406	0.654086	0.004665
20104	-9.705540	-1.255610	0.094306	0.003097	0.004640	0.005188	0.880277	0.373414	-0.074802	0.087698	-0.094421	-0.991662	-0.648167	0.750530	-0.128782	0.756432	0.654056	0.004619
20105	-9.733240	-1.180360	0.108911	-0.000442	0.006138	0.008156	0.880575	0.383954	-0.078438	0.087504	-0.094354	-0.991686	-0.648165	0.750562	-0.128605	0.756456	0.654029	0.004520
20106	-9.722810	-1.245040	0.055682	-0.003972	0.004985	0.005250	0.880740	0.377749	-0.073676	0.087426	-0.094347	-0.991693	-0.648198	0.750543	-0.128549	0.756436	0.654052	0.004461
20107	-9.729450	-1.300650	-0.035080	-0.001533	0.005605	0.004165	0.881413	0.374997	-0.079249	0.087408	-0.094393	-0.991690	-0.648156	0.750575	-0.128572	0.756474	0.654008	0.004425
20108	-9.688480	-1.285320	0.044446	0.004231	0.009554	0.004485	0.886160	0.374808	-0.073576	0.087301	-0.094422	-0.991697	-0.648126	0.750609	-0.128523	0.756512	0.653965	0.004331
20109	-9.740360	-1.211780	0.101222	0.003765	0.006009	0.005588	0.883517	0.370957	-0.089505	0.087162	-0.094417	-0.991710	-0.648085	0.750661	-0.128429	0.756564	0.653906	0.004239
20110	-9.762520	-1.191760	0.004278	-0.005523	0.007076	0.008825	0.881981	0.370895	-0.074806	0.087045	-0.094397	-0.991722	-0.648133	0.750636	-0.128337	0.756536	0.653938	0.004157
20111	-9.723800	-1.286880	-0.005963	0.004462	0.008243	0.000703	0.889225	0.379442	-0.077384	0.086895	-0.094336	-0.991741	-0.648051	0.750731	-0.128192	0.756624	0.653838	0.004100
20112	-9.725750	-1.329900	0.046793	0.007311	0.010679	0.009087	0.887460	0.379548	-0.070132	0.086748	-0.094338	-0.991754	-0.648002	0.750789	-0.128097	0.756682	0.653770	0.003999
20113	-9.724250	-1.263120	0.077520	0.011952	0.007061	0.004237	0.881339	0.376197	-0.075004	0.086645	-0.094407	-0.991756	-0.647897	0.750883	-0.128082	0.756784	0.653653	0.003895
20114	-9.723390	-1.240780	0.050054	0.004653	0.008720	0.008080	0.876678	0.374069	-0.067819	0.086520	-0.094403	-0.991767	-0.647867	0.750923	-0.127997	0.756824	0.653608	0.003809
20115	-9.740560	-1.230670	0.011714	0.002214	0.008101	0.009165	0.884172	0.373368	-0.077211	0.086371	-0.094459	-0.991775	-0.647865	0.750934	-0.127942	0.756843	0.653586	0.003662
20116	-9.769850	-1.221270	-0.005387	0.003534	0.007322	0.009374	0.876814	0.384476	-0.077865	0.086248	-0.094437	-0.991788	-0.647845	0.750968	-0.127844	0.756874	0.653551	0.003589
20117	-9.722760	-1.216530	0.021030	0.005102	0.008749	0.006389	0.891691	0.387844	-0.069468	0.086184	-0.094445	-0.991793	-0.647742	0.751063	-0.127808	0.756969	0.653441	0.003554
20118	-9.694620	-1.246180	0.063410	0.001793	0.008937	0.005573	0.885032	0.376091	-0.069825	0.086074	-0.094462	-0.991800	-0.647732	0.751082	-0.127749	0.756991	0.653417	0.003463
20119	-9.653080	-1.275910	-0.027312	-0.002417	0.009068	0.008140	0.876512	0.373062	-0.077790	0.085960	-0.094581	-0.991799	-0.647750	0.751063	-0.127765	0.756988	0.653421	0.003297
20120	-9.672200	-1.309160	-0.012072	0.005072	0.007885	0.011677	0.883425	0.379218	-0.070753	0.085819	-0.094545	-0.991815	-0.647721	0.751109	-0.127645	0.757029	0.653373	0.003221
20121	-9.694620	-1.266280	-0.023952	0.011052	0.007003	0.007627	0.887744	0.376781	-0.068803	0.085716	-0.094560	-0.991822	-0.647612	0.751212	-0.127588	0.757133	0.653253	0.003153
20122	-9.741270	-1.225060	0.006461	0.012389	0.009742	0.008427	0.882822	0.373713	-0.070069	0.085581	-0.094561	-0.991834	-0.647524	0.751303	-0.127501	0.757224	0.653148	0.003067
20123	-9.723340	-1.211890	0.016402	0.009530	0.009958	0.005918	0.880603	0.373521	-0.078140	0.085403	-0.094667	-0.991839	-0.647477	0.751350	-0.127465	0.757285	0.653079	0.002873
20124	-9.746700	-1.190990	0.031219	0.005302	0.006574	0.007894	0.880944	0.375285	-0.079878	0.085295	-0.094652	-0.991850	-0.647442	0.751393	-0.127383	0.757326	0.653031	0.002809
20125	-9.775950	-1.181780	0.014219	0.000004	0.006172	0.006467	0.885042	0.376946	-0.080222	0.085200	-0.094588	-0.991864	-0.647385	0.751462	-0.127272	0.757386	0.652961	0.002790
20126	-9.758650	-1.212980	-0.033775	-0.003555	0.004157	0.008843	0.891915	0.370212	-0.073944	0.085105	-0.094550	-0.991876	-0.647418	0.751449	-0.127181	0.757369	0.652982	0.002739
20127	-9.729560	-1.220940	-0.017713	0.000887	0.002711	0.002492	0.875629	0.373657	-0.071067	0.084994	-0.094510	-0.991889	-0.647382	0.751497	-0.127078	0.757412	0.652932	0.002689
20128	-9.712620	-1.229610	0.019550	-0.000246	0.003969	0.009662	0.879087	0.366123	-0.072911	0.084895	-0.094464	-0.991902	-0.647391	0.751506	-0.126978	0.757415	0.652928	0.002644
20129	-9.714340	-1.295030	-0.012272	0.003095	0.004642	0.005194	0.880598	0.368313	-0.079425	0.084757	-0.094479	-0.991912	-0.647380	0.751529	-0.126900	0.757440	0.652900	0.002533
20130	-9.723920	-1.207250	0.013196	0.002844	0.002439	0.008389	0.877813	0.375243	-0.078751	0.084677	-0.094433	-0.991924	-0.647364	0.751557	-0.126812	0.757462	0.652874	0.002507
20131	-9.730910	-1.239940	0.007902	-0.001134	0.001259	0.007170	0.884543	0.366417	-0.075565	0.084596	-0.094318	-0.991941	-0.647317	0.751621	-0.126673	0.757512	0.652817	0.002531
20132	-9.695580	-1.258810	-0.028972	0.005735	0.003084	0.005614	0.880624	0.373499	-0.077349	0.084529	-0.094296	-0.991949	-0.647277	0.751666	-0.126613	0.757553	0.652768	0.002502
20133	-9.742190	-1.217750	0.001825	0.007724	0.003674	0.006224	0.882408	0.374785	-0.075720	0.084382	-0.094231	-0.991968	-0.647199	0.751758	-0.126466	0.757637	0.652672	0.002449
20134	-9.724230	-1.204770	0.012428	0.003076	0.001125	0.004605	0.882414	0.378383	-0.070436	0.084336	-0.094204	-0.991974	-0.647178	0.751784	-0.126416	0.757659	0.652646	0.002436
20135	-9.736430	-1.205050	0.033416	0.002426	0.003273	0.004795	0.892185	0.378117	-0.070696	0.084288	-0.094227	-0.991976	-0.647133	0.751825	-0.126402	0.757703	0.652595	0.002392
20136	-9.747620	-1.183580	0.027411	0.003095	0.004643	0.005195	0.888759	0.385842	-0.076183	0.084212	-0.094219	-0.991983	-0.647113	0.751852	-0.126346	0.757729	0.652565	0.002344
20137	-9.765720	-1.195440	0.016472	-0.000484	-0.000888	0.006980	0.881316	0.379030	-0.072110	0.084207	-0.094213	-0.991984	-0.647072	0.751888	-0.126339	0.757764	0.652524	0.002352
20138	-9.713380	-1.223610	0.017200	-0.002653	0.004215	0.005458	0.883384	0.380897	-0.073629	0.084133	-0.094200	-0.991992	-0.647096	0.751878	-0.126280	0.757752	0.652538	0.002301
20139	-9.754730	-1.215310	0.021517	-0.004642	0.003625	0.004848	0.884319	0.367108	-0.078776	0.084132	-0.094242	-0.991988	-0.647086	0.751881	-0.126312	0.757761	0.652529	0.002274
20140	-9.733210	-1.301170	-0.025713	-0.004443	0.001450	0.006351	0.887486	0.374164	-0.068569	0.084073	-0.094205	-0.991997	-0.647124	0.751860	-0.126245	0.757735	0.652558	0.002249
20141	-9.697230	-1.275670	-0.004485	0.005084	0.005232	0.005806	0.876166	0.371083	-0.074635	0.083903	-0.094188	-0.992013	-0.647085	0.751914	-0.126121	0.757787	0.652499	0.002140
20142	-9.713650	-1.221450	0.015831	0.003745	0.002494	0.005006	0.888952	0.371768	-0.069253	0.083844	-0.094167	-0.992019	-0.647060	0.751945	-0.126067	0.757815	0.652466	0.002114
20143	-9.707460	-1.231850	-0.037535	0.003964	0.003836	0.007099	0.876963	0.374406	-0.076517	0.083706	-0.094162	-0.992032	-0.647034	0.751983	-0.125973	0.757853	0.652423	0.002020
20144	-9.691590	-1.262120	0.026588	0.007272	0.003646	0.007919	0.886501	0.374532	-0.072408	0.083620	-0.094127	-0.992042	-0.646984	0.752040	-0.125890	0.757905	0.652362	0.001987
20145	-9.725010	-1.198540	0.009355	0.008174	0.003700	0.004534	0.882664	0.376804	-0.074402	0.083560	-0.094120	-0.992048	-0.646886	0.752132	-0.125845	0.757995	0.652257	0.001963
20146	-9.731350	-1.186940	0.062039	0.005302	0.006575	0.007900	0.879869	0.366234	-0.067285	0.083452	-0.094104	-0.992059	-0.646851	0.752176	-0.125763	0.758037	0.652209	0.001899
20147	-9.755350	-1.210400	0.018891	0.001974	0.003247	0.006489	0.878260	0.373058	-0.071440	0.083334	-0.094115	-0.992067	-0.646843	0.752194	-0.125693	0.758057	0.652186	0.001806
20148	-9.766530	-1.188830	0.012861	-0.002653	0.004217	0.005458	0.884031	0.376712	-0.071782	0.083259	-0.094102	-0.992075	-0.646866	0.752183	-0.125635	0.758045	0.652200	0.001755
20149	-9.749620	-1.197460	0.050204	-0.005565	0.000056	0.007644	0.889955	0.368530	-0.069570	0.083212	-0.094087	-0.992080	-0.646894	0.752167	-0.125593	0.758027	0.652221	0.001725
20150	-9.732330	-1.228740	0.002705	-0.007554	-0.000533	0.007033	0.885405	0.373099	-0.074671	0.083163	-0.094032	-0.992090	-0.646955	0.752126	-0.125519	0.757979	0.652276	0.001715
20151	-9.727200	-1.260720	-0.023697	-0.004895	0.001426	0.008044	0.887794	0.371230	-0.076277	0.083008	-0.093990	-0.992107	-0.646997	0.752113	-0.125387	0.757961	0.652298	0.001620
20152	-9.688120	-1.311230	0.024896	0.004633	0.005204	0.007501	0.884656	0.374729	-0.074314	0.082912	-0.093968	-0.992117	-0.646967	0.752152	-0.125308	0.757997	0.652256	0.001568
20153	-9.692400	-1.255940	0.023986	0.008809	0.004207	0.010226	0.880636	0.369782	-0.073650	0.082777	-0.093896	-0.992135	-0.646867	0.752262	-0.125165	0.758097	0.652140	0.001532
20154	-9.713000	-1.146830	0.043715	-0.000248	0.003974	0.009666	0.879628	0.371726	-0.069338	0.082677	-0.093850	-0.992148	-0.646875	0.752271	-0.125064	0.758101	0.652135	0.001486
20155	-9.703340	-1.255800	-0.067325	-0.001588	0.001236	0.008866	0.880321	0.371183	-0.070251	0.082571	-0.093814	-0.992160	-0.646886	0.752278	-0.124968	0.758104	0.652133	0.001429
20156	-9.708660	-1.222250	-0.041217	0.002842	0.002440	0.008395	0.888373	0.367748	-0.075897	0.082490	-0.093768	-0.992171	-0.646870	0.752306	-0.124880	0.758126	0.652107	0.001402
20157	-9.721310	-1.199470	0.064767	0.005282	0.003056	0.007313	0.884746	0.365695	-0.067584	0.082345	-0.093725	-0.992187	-0.646820	0.752370	-0.124753	0.758184	0.652039	0.001331
20158	-9.739460	-1.210960	0.053812	0.003257	0.001608	0.011992	0.878840	0.370812	-0.074829	0.082248	-0.093646	-0.992202	-0.646804	0.752404	-0.124630	0.758208	0.652011	0.001313
20159	-9.727460	-1.209050	0.032458	-0.001822	0.002553	0.012654	0.889819	0.369728	-0.071568	0.082069	-0.093581	-0.992223	-0.646830	0.752409	-0.124464	0.758206	0.652014	0.001218
20160	-9.722390	-1.240710	0.005761	-0.002886	0.005536	0.009247	0.886943	0.364180	-0.068184	0.081959	-0.093548	-0.992236	-0.646858	0.752401	-0.124367	0.758194	0.652029	0.001154
20161	-9.728410	-1.251300	-0.026480	0.004124	0.000801	0.013897	0.893589	0.371738	-0.069207	0.081727	-0.093469	-0.992262	-0.646859	0.752435	-0.124156	0.758218	0.652001	0.001033
20162	-9.733760	-1.217390	-0.000587	0.007512	0.008504	0.010610	0.882481	0.370420	-0.071233	0.081585	-0.093445	-0.992276	-0.646810	0.752496	-0.124046	0.758275	0.651934	0.000951
20163	-9.710680	-1.236490	-0.016614	0.009894	0.004742	0.014229	0.886250	0.365920	-0.083631	0.081388	-0.093403	-0.992296	-0.646747	0.752576	-0.123884	0.758350	0.651847	0.000842
20164	-9.710150	-1.190730	0.041254	0.010345	0.004768	0.012536	0.881301	0.368976	-0.071023	0.081262	-0.093341	-0.992312	-0.646678	0.752657	-0.123755	0.758422	0.651763	0.000801
20165	-9.713990	-1.157870	-0.044620	0.001937	0.002390	0.011785	0.886543	0.369923	-0.068952	0.081103	-0.093196	-0.992339	-0.646611	0.752749	-0.123542	0.758496	0.651677	0.000789
20166	-9.757570	-1.192380	0.013582	0.004159	0.001661	0.008609	0.881793	0.367412	-0.071625	0.081026	-0.093143	-0.992350	-0.646585	0.752786	-0.123451	0.758526	0.651642	0.000770
20167	-9.734450	-1.211880	-0.002103	0.001522	0.003223	0.008187	0.887181	0.375784	-0.077018	0.080880	-0.093128	-0.992364	-0.646583	0.752806	-0.123345	0.758544	0.651622	0.000672
20168	-9.716930	-1.175680	0.093532	0.006562	0.001417	0.012819	0.886491	0.369224	-0.074418	0.080778	-0.093041	-0.992380	-0.646543	0.752862	-0.123212	0.758589	0.651569	0.000659
20169	-9.739910	-1.176860	0.023752	-0.001153	0.003928	0.013058	0.885515	0.367292	-0.070848	0.080652	-0.092939	-0.992400	-0.646500	0.752925	-0.123053	0.758639	0.651511	0.000640
20170	-9.740060	-1.175590	0.023605	-0.004288	-0.001572	0.013149	0.892178	0.363677	-0.071227	0.080570	-0.092831	-0.992417	-0.646542	0.752911	-0.122917	0.758612	0.651542	0.000643
20171	-9.718830	-1.260810	-0.023185	-0.005607	-0.000791	0.012938	0.881920	0.370883	-0.077105	0.080363	-0.092727	-0.992443	-0.646601	0.752895	-0.122704	0.758583	0.651576	0.000548
20172	-9.741080	-1.217580	-0.034530	0.002583	0.000241	0.011598	0.883113	0.369242	-0.074086	0.080277	-0.092642	-0.992458	-0.646590	0.752924	-0.122583	0.758602	0.651554	0.000541
20173	-9.676020	-1.200220	0.003423	0.005244	0.002197	0.012611	0.879505	0.368007	-0.069297	0.080171	-0.092527	-0.992477	-0.646499	0.753028	-0.122427	0.758691	0.651451	0.000552
20174	-9.667360	-1.263430	0.062589	0.009674	0.003397	0.012141	0.880464	0.373812	-0.071935	0.080057	-0.092459	-0.992493	-0.646434	0.753104	-0.122301	0.758758	0.651373	0.000523
20175	-9.688490	-1.198430	0.024075	0.008575	0.005522	0.014025	0.884272	0.372423	-0.065727	0.079931	-0.092424	-0.992506	-0.646365	0.753181	-0.122193	0.758830	0.651288	0.000463
20176	-9.733220	-1.090150	0.085797	0.004168	0.007842	0.015087	0.889445	0.370599	-0.074163	0.079765	-0.092363	-0.992525	-0.646344	0.753224	-0.122038	0.758865	0.651247	0.000383
20177	-9.776500	-1.147160	0.058629	-0.006669	0.002195	0.009531	0.886503	0.362439	-0.077124	0.079662	-0.092347	-0.992535	-0.646395	0.753193	-0.121958	0.758833	0.651285	0.000309
20178	-9.772220	-1.223310	-0.026144	-0.003143	0.003344	0.012449	0.883101	0.376472	-0.076174	0.079547	-0.092275	-0.992551	-0.646427	0.753186	-0.121829	0.758818	0.651303	0.000264
20179	-9.761350	-1.243060	-0.020812	-0.005585	0.002733	0.013532	0.885402	0.364555	-0.074338	0.079424	-0.092139	-0.992573	-0.646409	0.753231	-0.121646	0.758846	0.651270	0.000265
20180	-9.749360	-1.240950	-0.042272	-0.002730	0.002513	0.016050	0.880483	0.365790	-0.070175	0.079292	-0.092036	-0.992594	-0.646441	0.753230	-0.121481	0.758832	0.651286	0.000229
20181	-9.778660	-1.230650	-0.059069	0.003238	0.004273	0.017888	0.886380	0.368160	-0.068938	0.079074	-0.091916	-0.992622	-0.646413	0.753292	-0.121248	0.758879	0.651231	0.000151
20182	-9.718770	-1.180130	0.004963	0.004336	0.002147	0.016005	0.887417	0.368181	-0.068014	0.078945	-0.091810	-0.992642	-0.646391	0.753337	-0.121084	0.758911	0.651194	0.000127
20183	-9.671830	-1.174680	0.031953	0.002785	0.004249	0.019585	0.891227	0.371228	-0.073171	0.078727	-0.091735	-0.992667	-0.646396	0.753365	-0.120885	0.758930	0.651173	0.000013
20184	-9.651970	-1.281090	0.011639	0.004555	0.003492	0.018103	0.881377	0.366973	-0.071626	0.078573	-0.091622	-0.992689	-0.646375	0.753413	-0.120700	0.758964	0.651133	-0.000024
20185	-9.686410	-1.237750	0.021087	0.010070	0.005226	0.021637	0.879629	0.366508	-0.072542	0.078369	-0.091494	-0.992717	-0.646281	0.753531	-0.120469	0.759065	0.651015	-0.000077
20186	-9.703570	-1.226390	-0.017091	0.010549	0.008769	0.020534	0.884516	0.369076	-0.076046	0.078160	-0.091397	-0.992742	-0.646215	0.753620	-0.120260	0.759142	0.650925	-0.000159
20187	-9.702650	-1.202660	-0.044425	0.017135	0.004858	0.021595	0.879899	0.363775	-0.064456	0.077980	-0.091241	-0.992771	-0.646048	0.753801	-0.120024	0.759303	0.650737	-0.000165
20188	-9.733170	-1.213540	-0.034453	0.018479	0.007595	0.022400	0.880003	0.367489	-0.070078	0.077768	-0.091123	-0.992799	-0.645924	0.753944	-0.119796	0.759430	0.650589	-0.000226
20189	-9.721260	-1.210730	-0.055961	0.020440	0.004663	0.022425	0.878731	0.365048	-0.072009	0.077552	-0.091040	-0.992823	-0.645806	0.754077	-0.119593	0.759552	0.650446	-0.000314
20190	-9.673570	-1.160330	0.029182	0.015363	0.005621	0.023085	0.887309	0.372165	-0.073673	0.077351	-0.090904	-0.992851	-0.645706	0.754199	-0.119359	0.759658	0.650323	-0.000359
20191	-9.739460	-1.151230	0.075744	0.017351	0.006207	0.023701	0.887149	0.360456	-0.072058	0.077160	-0.090765	-0.992879	-0.645549	0.754370	-0.119129	0.759811	0.650144	-0.000386
20192	-9.750700	-1.127950	0.069771	0.006277	0.001891	0.021928	0.890609	0.366097	-0.074036	0.076995	-0.090613	-0.992905	-0.645517	0.754433	-0.118906	0.759855	0.650092	-0.000405
20193	-9.771680	-1.061870	0.031143	0.004082	0.006149	0.025697	0.883683	0.365652	-0.075733	0.076695	-0.090432	-0.992945	-0.645473	0.754523	-0.118574	0.759923	0.650013	-0.000503
20194	-9.795540	-1.106600	-0.096957	-0.000337	0.002290	0.020278	0.883506	0.369181	-0.068940	0.076537	-0.090294	-0.992970	-0.645490	0.754541	-0.118367	0.759924	0.650011	-0.000534
20195	-9.762900	-1.167720	-0.079958	0.004285	0.001308	0.021319	0.884884	0.356075	-0.066594	0.076393	-0.090145	-0.992994	-0.645435	0.754620	-0.118160	0.759985	0.649940	-0.000535
20196	-9.773220	-1.100160	-0.027544	0.009814	0.000370	0.018969	0.882852	0.363075	-0.074616	0.076258	-0.090005	-0.993018	-0.645374	0.754703	-0.117966	0.760051	0.649863	-0.000535
20197	-9.744380	-1.107030	-0.011028	0.002749	0.000748	0.019012	0.883926	0.366559	-0.067358	0.076030	-0.089860	-0.993048	-0.645364	0.754752	-0.117707	0.760082	0.649826	-0.000609
20198	-9.738680	-1.093480	0.020935	0.000085	-0.001204	0.017997	0.885659	0.366239	-0.076295	0.075913	-0.089717	-0.993070	-0.645375	0.754771	-0.117522	0.760084	0.649824	-0.000604
20199	-9.781020	-1.127870	-0.032354	-0.012133	-0.004233	0.023406	0.891832	0.369594	-0.074380	0.075788	-0.089520	-0.993097	-0.645453	0.754740	-0.117291	0.760031	0.649887	-0.000581
20200	-9.730360	-1.176580	-0.004254	-0.004129	-0.001047	0.020564	0.887225	0.368992	-0.069664	0.075653	-0.089358	-0.993122	-0.645499	0.754734	-0.117081	0.760005	0.649917	-0.000583
20201	-9.751200	-1.110900	-0.042168	-0.001750	-0.007481	0.018304	0.887942	0.369612	-0.065682	0.075602	-0.089186	-0.993142	-0.645485	0.754771	-0.116917	0.760022	0.649897	-0.000506
20202	-9.745480	-1.097310	-0.009578	-0.003520	-0.006718	0.019788	0.890604	0.365373	-0.068166	0.075516	-0.088994	-0.993165	-0.645525	0.754768	-0.116715	0.759996	0.649927	-0.000451
20203	-9.750360	-1.085570	-0.067526	-0.009524	-0.011985	0.017358	0.885002	0.367915	-0.076498	0.075472	-0.088857	-0.993181	-0.645623	0.754705	-0.116583	0.759918	0.650019	-0.000409
20204	-9.739640	-1.104900	-0.060831	-0.006860	-0.010035	0.018374	0.882946	0.363272	-0.076023	0.075420	-0.088654	-0.993203	-0.645688	0.754679	-0.116394	0.759868	0.650077	-0.000325
20205	-9.758250	-1.092680	0.014380	-0.009071	-0.011962	0.015664	0.889180	0.362245	-0.065617	0.075427	-0.088413	-0.993224	-0.645695	0.754700	-0.116215	0.759861	0.650085	-0.000163
20206	-9.730640	-1.121580	0.058662	-0.015462	-0.010211	0.016111	0.891215	0.360341	-0.074431	0.075390	-0.088225	-0.993243	-0.645823	0.754616	-0.116049	0.759756	0.650208	-0.000087
20207	-9.718630	-1.119510	0.038389	-0.007944	-0.010572	0.014371	0.889637	0.366395	-0.070296	0.075288	-0.088062	-0.993266	-0.645889	0.754589	-0.115859	0.759710	0.650262	-0.000066
20208	-9.716340	-1.194390	0.066876	-0.010157	-0.012499	0.011660	0.895809	0.362438	-0.071121	0.075298	-0.087893	-0.993280	-0.645973	0.754535	-0.115737	0.759637	0.650347	0.000038
20209	-9.708000	-1.138140	0.045812	-0.003661	-0.003694	0.012985	0.892405	0.372894	-0.071901	0.075185	-0.087789	-0.993298	-0.645993	0.754542	-0.115585	0.759632	0.650353	0.000019
20210	-9.734930	-1.061660	0.061119	-0.008816	-0.007096	0.018358	0.886386	0.369397	-0.067230	0.075110	-0.087606	-0.993320	-0.646072	0.754503	-0.115396	0.759572	0.650424	0.000071
20211	-9.742110	-1.116230	-0.028345	-0.020086	-0.009217	0.015082	0.883864	0.358105	-0.073091	0.075132	-0.087492	-0.993328	-0.646218	0.754389	-0.115324	0.759446	0.650570	0.000140
20212	-9.762730	-1.193240	-0.069650	-0.015688	-0.011551	0.014022	0.887029	0.362718	-0.072240	0.075119	-0.087312	-0.993345	-0.646346	0.754301	-0.115179	0.759338	0.650697	0.000228
20213	-9.755670	-1.158350	-0.063648	-0.012159	-0.010410	0.016947	0.880828	0.362222	-0.069991	0.075035	-0.087101	-0.993370	-0.646421	0.754270	-0.114964	0.759282	0.650761	0.000293
20214	-9.735150	-1.243400	-0.109568	-0.002650	-0.010195	0.015814	0.885749	0.363489	-0.083348	0.075000	-0.086916	-0.993388	-0.646452	0.754268	-0.114801	0.759260	0.650788	0.000383
20215	-9.766980	-1.133880	-0.067622	0.011965	-0.004764	0.020505	0.884160	0.361716	-0.072894	0.074911	-0.086679	-0.993416	-0.646307	0.754429	-0.114563	0.759392	0.650633	0.000494
20216	-9.814380	-0.993186	-0.090057	0.001971	-0.011184	0.016853	0.882958	0.357179	-0.065430	0.074877	-0.086480	-0.993436	-0.646303	0.754458	-0.114390	0.759398	0.650626	0.000599
20217	-9.800050	-1.067120	-0.082460	0.003248	-0.015488	0.016475	0.884162	0.361313	-0.069687	0.074832	-0.086286	-0.993456	-0.646296	0.754491	-0.114213	0.759409	0.650613	0.000693
20218	-9.783310	-1.075250	-0.043252	0.006373	-0.016187	0.009896	0.886947	0.362380	-0.072865	0.074880	-0.086107	-0.993468	-0.646254	0.754543	-0.114108	0.759440	0.650577	0.000853
20219	-9.764010	-1.040240	-0.057497	0.003438	-0.020328	0.012091	0.883983	0.356605	-0.071635	0.074929	-0.085901	-0.993482	-0.646220	0.754591	-0.113984	0.759464	0.650549	0.001030
20220	-9.790850	-1.106450	-0.044418	-0.002537	-0.022067	0.010256	0.894106	0.365472	-0.072264	0.075020	-0.085681	-0.993494	-0.646246	0.754585	-0.113876	0.759433	0.650584	0.001238
20221	-9.749780	-1.113730	-0.046929	-0.001900	-0.024219	0.010068	0.887502	0.364175	-0.064414	0.075086	-0.085457	-0.993509	-0.646247	0.754604	-0.113749	0.759426	0.650592	0.001434
20222	-9.745110	-1.122840	0.014287	-0.000811	-0.026349	0.008183	0.887899	0.357884	-0.069282	0.075223	-0.085225	-0.993518	-0.646258	0.754607	-0.113661	0.759403	0.650619	0.001686
20223	-9.774310	-1.090160	0.085522	-0.002844	-0.027778	0.012880	0.882329	0.357903	-0.069364	0.075291	-0.085024	-0.993530	-0.646318	0.754572	-0.113554	0.759345	0.650686	0.001860
20224	-9.762310	-1.088270	0.067027	-0.011040	-0.028771	0.014236	0.885025	0.360307	-0.074246	0.075407	-0.084731	-0.993546	-0.646411	0.754514	-0.113406	0.759254	0.650791	0.002125
20225	-9.757660	-1.119560	0.043262	-0.017202	-0.025666	0.016794	0.886779	0.365844	-0.072664	0.075450	-0.084454	-0.993567	-0.646545	0.754427	-0.113224	0.759136	0.650928	0.002318
20226	-9.710570	-1.114580	0.072901	-0.015930	-0.029968	0.016419	0.891882	0.360721	-0.080807	0.075561	-0.084136	-0.993585	-0.646677	0.754339	-0.113056	0.759012	0.651071	0.002590
20227	-9.701100	-1.155680	0.107965	-0.020777	-0.027649	0.019191	0.883590	0.358223	-0.068337	0.075642	-0.083787	-0.993609	-0.646792	0.754272	-0.112844	0.758906	0.651194	0.002862
20228	-9.653150	-1.293820	0.021557	-0.014349	-0.025891	0.019325	0.877849	0.370322	-0.077162	0.075703	-0.083474	-0.993630	-0.646914	0.754197	-0.112646	0.758796	0.651322	0.003095
20229	-9.667940	-1.238950	-0.067390	0.001365	-0.022608	0.022103	0.886477	0.355434	-0.076971	0.075780	-0.083194	-0.993648	-0.646909	0.754225	-0.112484	0.758793	0.651324	0.003336
20230	-9.670360	-1.137910	-0.007403	0.009744	-0.023791	0.022254	0.881997	0.363474	-0.081788	0.075806	-0.082873	-0.993673	-0.646851	0.754309	-0.112257	0.758840	0.651268	0.003575
20231	-9.679220	-1.190650	0.016659	0.006214	-0.022257	0.025237	0.883681	0.366252	-0.073202	0.075803	-0.082482	-0.993706	-0.646754	0.754437	-0.111958	0.758923	0.651170	0.003843
20232	-9.728060	-1.213140	0.018802	0.012149	-0.024040	0.026478	0.891599	0.352427	-0.076903	0.075804	-0.082127	-0.993735	-0.646680	0.754540	-0.111688	0.758985	0.651095	0.004087
20233	-9.743690	-1.133870	0.126934	0.018578	-0.022285	0.026608	0.885306	0.363594	-0.073446	0.075764	-0.081784	-0.993766	-0.646530	0.754711	-0.111402	0.759117	0.650940	0.004304
20234	-9.781220	-1.034760	0.138669	0.007718	-0.022542	0.032869	0.877153	0.357826	-0.082841	0.075712	-0.081390	-0.993802	-0.646495	0.754790	-0.111069	0.759152	0.650897	0.004528
20235	-9.740660	-1.062730	0.051139	0.000606	-0.025656	0.032351	0.885290	0.357374	-0.073491	0.075730	-0.080959	-0.993836	-0.646467	0.754860	-0.110752	0.759174	0.650870	0.004828
20236	-9.765410	-1.083570	0.011090	-0.002933	-0.026787	0.029440	0.897481	0.357853	-0.080107	0.075732	-0.080563	-0.993868	-0.646511	0.754867	-0.110454	0.759137	0.650911	0.005083
20237	-9.736630	-1.089720	0.030020	-0.001171	-0.027552	0.027953	0.891795	0.351771	-0.079690	0.075701	-0.080164	-0.993903	-0.646502	0.754922	-0.110130	0.759148	0.650897	0.005322
20238	-9.652110	-1.157100	0.135150	0.003047	-0.025054	0.031271	0.886836	0.356246	-0.076255	0.075678	-0.079766	-0.993937	-0.646501	0.754969	-0.109813	0.759151	0.650891	0.005566
20239	-9.581730	-1.291790	0.118145	0.019184	-0.022618	0.037646	0.884752	0.358846	-0.079416	0.075523	-0.079308	-0.993985	-0.646341	0.755171	-0.109363	0.759302	0.650713	0.005773
20240	-9.662480	-1.107250	0.107150	0.015972	-0.015370	0.038008	0.886458	0.357832	-0.076129	0.075384	-0.078922	-0.994026	-0.646247	0.755307	-0.108978	0.759396	0.650602	0.005935
20241	-9.719050	-1.065060	-0.062062	0.006995	-0.024739	0.037818	0.890559	0.362782	-0.077263	0.075327	-0.078474	-0.994066	-0.646187	0.755413	-0.108600	0.759453	0.650533	0.006194
20242	-9.765750	-1.186300	-0.228819	0.012876	-0.030044	0.038474	0.892116	0.356211	-0.078992	0.075296	-0.077989	-0.994107	-0.646117	0.755529	-0.108210	0.759516	0.650457	0.006498
20243	-9.842250	-1.153860	-0.183896	0.036111	-0.027180	0.039463	0.895575	0.361277	-0.078533	0.075239	-0.077521	-0.994148	-0.645831	0.755830	-0.107815	0.759764	0.650163	0.006803
20244	-9.767480	-1.177620	-0.110582	0.055303	-0.028983	0.038658	0.893417	0.361281	-0.074613	0.075199	-0.077041	-0.994188	-0.645438	0.756221	-0.107421	0.760102	0.649765	0.007142
20245	-9.719980	-1.147730	0.004513	0.073521	-0.021618	0.040914	0.888124	0.359245	-0.079980	0.075100	-0.076634	-0.994227	-0.644883	0.756748	-0.107041	0.760582	0.649199	0.007412
20246	-9.752910	-0.959551	0.021249	0.076085	-0.026703	0.040776	0.886244	0.352671	-0.077124	0.075029	-0.076153	-0.994269	-0.644334	0.757275	-0.106623	0.761055	0.648641	0.007750
20247	-9.845740	-0.798030	-0.052088	0.055357	-0.038155	0.039079	0.892960	0.362494	-0.084234	0.075057	-0.075625	-0.994307	-0.643914	0.757686	-0.106235	0.761407	0.648223	0.008173
20248	-9.973210	-0.857873	-0.148460	0.041510	-0.047852	0.035794	0.893398	0.357999	-0.074047	0.075180	-0.075045	-0.994342	-0.643624	0.757984	-0.105870	0.761641	0.647942	0.008685
20249	-9.962820	-0.875743	-0.137162	0.038476	-0.058164	0.031559	0.889528	0.361388	-0.085017	0.075438	-0.074466	-0.994366	-0.643326	0.758276	-0.105592	0.761867	0.647667	0.009297
20250	-9.930130	-0.912798	-0.028818	0.037700	-0.063869	0.035929	0.889045	0.351180	-0.085441	0.075683	-0.073781	-0.994399	-0.643065	0.758548	-0.105225	0.762063	0.647426	0.009964
20251	-9.865950	-1.036480	0.012012	0.031468	-0.066931	0.032038	0.892472	0.356503	-0.082160	0.076000	-0.073073	-0.994427	-0.642788	0.758830	-0.104887	0.762265	0.647177	0.010701
20252	-9.777720	-1.038620	0.040745	0.025628	-0.071641	0.037092	0.894434	0.365579	-0.083315	0.076298	-0.072329	-0.994458	-0.642619	0.759024	-0.104509	0.762377	0.647032	0.011432
20253	-9.721990	-1.097720	0.022662	0.021990	-0.077110	0.038955	0.891354	0.355980	-0.081997	0.076681	-0.071567	-0.994484	-0.642447	0.759217	-0.104173	0.762484	0.646891	0.012239
20254	-9.659890	-1.144780	0.036725	0.020588	-0.080653	0.043522	0.891479	0.353736	-0.083633	0.077006	-0.070716	-0.994520	-0.642322	0.759383	-0.103731	0.762557	0.646790	0.013055
20255	-9.603660	-1.300880	0.073807	0.040755	-0.076251	0.045764	0.888879	0.357373	-0.084794	0.077279	-0.069909	-0.994556	-0.642021	0.759698	-0.103287	0.762782	0.646508	0.013826
20256	-9.677510	-1.004300	0.156924	0.052264	-0.074678	0.039880	0.901348	0.361282	-0.097703	0.077582	-0.069124	-0.994587	-0.641652	0.760065	-0.102877	0.763062	0.646160	0.014614
20257	-9.724240	-0.761541	0.198500	0.028427	-0.085347	0.044889	0.893871	0.350506	-0.081429	0.077999	-0.068200	-0.994618	-0.641398	0.760339	-0.102435	0.763233	0.645936	0.015563
20258	-9.761610	-0.783290	0.074592	0.000674	-0.092815	0.043951	0.893559	0.354191	-0.091411	0.078416	-0.067267	-0.994649	-0.641426	0.760375	-0.101992	0.763167	0.645991	0.016479
20259	-9.805120	-0.914570	-0.025294	-0.014590	-0.105203	0.039984	0.892214	0.357865	-0.092906	0.078927	-0.066312	-0.994672	-0.641537	0.760335	-0.101595	0.763021	0.646138	0.017469
20260	-9.839560	-0.989336	-0.034623	-0.009430	-0.111861	0.040300	0.888209	0.348463	-0.085832	0.079512	-0.065284	-0.994694	-0.641639	0.760302	-0.101190	0.762874	0.646281	0.018564
20261	-9.749250	-1.166650	-0.031897	-0.003253	-0.111471	0.038327	0.901551	0.350715	-0.097458	0.080123	-0.064289	-0.994710	-0.641663	0.760330	-0.100827	0.762790	0.646347	0.019668
20262	-9.732270	-1.172030	0.016461	0.014155	-0.113358	0.044306	0.887353	0.351765	-0.092665	0.080693	-0.063221	-0.994732	-0.641590	0.760452	-0.100377	0.762792	0.646309	0.020801
20263	-9.789290	-1.026760	0.137889	0.028877	-0.116354	0.043968	0.896479	0.352484	-0.091030	0.081281	-0.062108	-0.994754	-0.641340	0.760725	-0.099900	0.762939	0.646096	0.022000
20264	-9.792410	-0.967969	0.148918	0.020349	-0.122132	0.042797	0.893703	0.351167	-0.083115	0.081928	-0.060994	-0.994770	-0.641218	0.760885	-0.099463	0.762972	0.646014	0.023228
20265	-9.866700	-0.912268	0.176821	0.019978	-0.119428	0.050449	0.892917	0.350076	-0.099868	0.082479	-0.059939	-0.994789	-0.641103	0.761041	-0.099009	0.763010	0.645928	0.024343
20266	-9.939950	-0.835007	0.177898	0.021626	-0.122881	0.043104	0.897674	0.351347	-0.092689	0.083130	-0.058818	-0.994801	-0.640972	0.761209	-0.098569	0.763049	0.645834	0.025579
20267	-10.091300	-0.773224	0.164648	0.020919	-0.124218	0.042774	0.892048	0.354920	-0.093115	0.083786	-0.057706	-0.994811	-0.640804	0.761406	-0.098137	0.763119	0.645702	0.026817
20268	-10.446100	-0.604331	-0.012345	0.021077	-0.125538	0.039025	0.899889	0.345045	-0.103518	0.084484	-0.056599	-0.994816	-0.640675	0.761566	-0.097738	0.763150	0.645611	0.028079
20269	-11.252100	-0.157789	-0.510970	0.016367	-0.136371	0.032625	0.897400	0.353920	-0.094881	0.085294	-0.055490	-0.994809	-0.640535	0.761726	-0.097408	0.763178	0.645518	0.029428
20270	-11.595000	-0.140151	-1.176610	0.030015	-0.153140	0.019001	0.896862	0.351953	-0.102150	0.086331	-0.054358	-0.994782	-0.640320	0.761933	-0.097204	0.763241	0.645371	0.030972
20271	-11.245500	-1.314080	-1.175370	0.124352	-0.146111	0.007174	0.900737	0.351557	-0.108955	0.087405	-0.053417	-0.994740	-0.639355	0.762752	-0.097137	0.763928	0.644482	0.032516
20272	-10.551800	-2.183400	-0.876466	0.308149	-0.108098	0.000385	0.897789	0.349814	-0.099182	0.088219	-0.052720	-0.994705	-0.636997	0.764736	-0.097025	0.765802	0.642183	0.033882
20273	-9.959170	-1.947680	-0.349266	0.493287	-0.060417	0.010200	0.901614	0.352585	-0.110348	0.088592	-0.052291	-0.994694	-0.633165	0.767945	-0.096763	0.768930	0.638378	0.034925
20274	-9.626340	-0.891945	0.447368	0.561098	-0.028308	0.008915	0.888593	0.359338	-0.105382	0.088744	-0.052043	-0.994694	-0.628847	0.771521	-0.096471	0.772448	0.634072	0.035740
20275	-9.487860	0.154200	1.321630	0.492671	-0.038503	0.003860	0.900127	0.351559	-0.112166	0.089088	-0.051822	-0.994675	-0.625018	0.774642	-0.096338	0.775510	0.630273	0.036622
20276	-9.447680	1.248360	1.528620	-0.023175	-0.054616	-0.033384	0.899784	0.358008	-0.106047	0.089710	-0.051737	-0.994623	-0.625167	0.774481	-0.096673	0.775318	0.630478	0.037134
20277	-8.522980	1.286150	2.519990	0.243749	-0.097286	-0.052034	0.899954	0.348914	-0.115219	0.090821	-0.051600	-0.994530	-0.623218	0.775988	-0.097174	0.776757	0.628634	0.038318
20278	-9.387820	0.807246	2.710750	-0.120135	-0.099105	-0.081871	0.896802	0.346239	-0.116005	0.092091	-0.051613	-0.994412	-0.624074	0.775191	-0.098029	0.775919	0.629614	0.039178
20279	-9.770450	0.787381	2.493450	-0.263488	-0.143909	-0.091077	0.894853	0.355440	-0.119369	0.093735	-0.051403	-0.994269	-0.625990	0.773521	-0.099006	0.774177	0.631683	0.040328
20280	-10.239500	0.874130	2.124750	-0.429228	-0.152820	-0.094987	0.901593	0.362579	-0.119599	0.095502	-0.051170	-0.994113	-0.629216	0.770755	-0.100120	0.771341	0.635074	0.041411
20281	-10.511100	0.509299	1.698550	-0.562046	-0.153698	-0.096216	0.896170	0.352626	-0.111462	0.097371	-0.050883	-0.993947	-0.633460	0.767113	-0.101327	0.767625	0.639491	0.042462
20282	-10.513200	0.553940	1.221120	-0.674308	-0.164005	-0.100308	0.892061	0.351976	-0.111967	0.099254	-0.050599	-0.993775	-0.638521	0.762734	-0.102608	0.763177	0.644730	0.043396
20283	-10.590200	0.379353	0.677813	-0.752791	-0.183766	-0.109654	0.894597	0.361927	-0.104238	0.101311	-0.050252	-0.993585	-0.644144	0.757800	-0.104007	0.758166	0.650548	0.044404
20284	-10.420500	0.431362	-0.061584	-0.791548	-0.209624	-0.133562	0.888431	0.363124	-0.116426	0.103749	-0.049892	-0.993351	-0.649986	0.752562	-0.105685	0.752831	0.656629	0.045648
20285	-10.325800	-0.342472	-0.971771	-0.748871	-0.214900	-0.160531	0.895608	0.365877	-0.112702	0.106451	-0.049678	-0.993076	-0.655489	0.747492	-0.107656	0.747665	0.662411	0.047008
20286	-9.951990	-0.375845	-2.161710	-0.593069	-0.183823	-0.177968	0.890934	0.367862	-0.114506	0.108982	-0.049784	-0.992796	-0.659719	0.743463	-0.109701	0.743569	0.666922	0.048181
20287	-9.458920	0.392901	-2.985950	-0.416897	-0.113830	-0.161959	0.886330	0.376253	-0.106289	0.110931	-0.050174	-0.992561	-0.662654	0.740580	-0.111496	0.740664	0.670093	0.048905
20288	-8.790790	2.008200	-3.600150	-0.256263	-0.023129	-0.096091	0.895734	0.377972	-0.115352	0.111730	-0.050732	-0.992443	-0.664442	0.738813	-0.112570	0.738940	0.671998	0.048839
20289	-8.531110	4.505820	-3.719840	-0.295227	0.078358	-0.001212	0.886795	0.374139	-0.113250	0.111262	-0.051238	-0.992469	-0.666682	0.736761	-0.112776	0.736991	0.674209	0.047814
20290	-8.784340	5.572710	-3.812630	-0.548880	0.164888	0.090614	0.890796	0.376936	-0.105801	0.109435	-0.051689	-0.992649	-0.670817	0.733098	-0.112128	0.733504	0.678157	0.045553
20291	-9.067720	5.013790	-3.900020	-0.765160	0.221159	0.170811	0.900415	0.371478	-0.095827	0.106747	-0.051874	-0.992932	-0.676659	0.727916	-0.110774	0.728518	0.683701	0.042602
20292	-8.946620	4.159020	-3.506960	-0.843168	0.273466	0.262637	0.888093	0.370168	-0.097269	0.102968	-0.051849	-0.993332	-0.683053	0.722264	-0.108505	0.723074	0.689671	0.038954
20293	-9.041690	4.095590	-2.934600	-0.858068	0.330584	0.344862	0.895750	0.372097	-0.095224	0.098216	-0.051632	-0.993825	-0.689626	0.716458	-0.105375	0.717475	0.695717	0.034760
20294	-9.295980	4.007790	-2.509880	-0.849143	0.370671	0.422764	0.889809	0.365127	-0.086174	0.092629	-0.051207	-0.994383	-0.696098	0.710744	-0.101444	0.711946	0.701585	0.030190
20295	-9.459460	4.228670	-2.016420	-0.856169	0.392722	0.499862	0.903970	0.367299	-0.081057	0.086404	-0.050319	-0.994989	-0.702690	0.704899	-0.096669	0.706231	0.707521	0.025547
20296	-9.492950	4.339780	-1.574160	-0.915791	0.405031	0.580583	0.906881	0.363036	-0.076731	0.079448	-0.049125	-0.995628	-0.709611	0.698680	-0.091098	0.700101	0.713745	0.020649
20297	-9.695740	3.966030	-1.438590	-0.974496	0.412039	0.657751	0.906729	0.365067	-0.070038	0.071941	-0.047373	-0.996283	-0.716970	0.691943	-0.084674	0.693382	0.720396	0.015815
20298	-9.849960	3.221170	-1.464590	-0.978970	0.421009	0.735478	0.911280	0.361104	-0.070136	0.063729	-0.045357	-0.996936	-0.724223	0.685200	-0.077469	0.686614	0.726942	0.010819
20299	-9.836260	2.185000	-1.529820	-0.876252	0.439185	0.806491	0.912456	0.349750	-0.056681	0.055036	-0.042845	-0.997565	-0.730819	0.679026	-0.069484	0.680349	0.732863	0.006059
20300	-9.875640	1.685120	-1.352980	-0.671957	0.463988	0.868587	0.916817	0.348276	-0.057781	0.045513	-0.040379	-0.998147	-0.735811	0.674448	-0.060835	0.675655	0.737217	0.000985
20301	-9.949800	1.815570	-1.017020	-0.476783	0.489933	0.929017	0.923617	0.343643	-0.050998	0.035523	-0.037521	-0.998664	-0.739532	0.671147	-0.051521	0.672184	0.740374	-0.003906
20302	-10.101400	2.222770	-0.584698	-0.367163	0.499254	0.992748	0.929655	0.338536	-0.048142	0.024812	-0.034572	-0.999094	-0.742295	0.668783	-0.041577	0.669614	0.742654	-0.009069
20303	-10.044900	2.401300	-0.144843	-0.354897	0.495029	1.050100	0.927988	0.330226	-0.045685	0.013913	-0.030981	-0.999423	-0.745019	0.666321	-0.031027	0.666898	0.745021	-0.013811
20304	-9.936260	2.010680	0.007249	-0.372817	0.487956	1.098330	0.937184	0.318492	-0.040873	0.002462	-0.027318	-0.999624	-0.747591	0.663859	-0.019983	0.664155	0.747359	-0.018788
20305	-9.922370	1.525820	0.067106	-0.350779	0.488207	1.149040	0.943888	0.314937	-0.038187	-0.009272	-0.023140	-0.999689	-0.749965	0.661425	-0.008354	0.661413	0.749654	-0.023487
20306	-10.049400	1.269590	0.212224	-0.315012	0.478476	1.178420	0.940911	0.303878	-0.030567	-0.021285	-0.018949	-0.999594	-0.751865	0.659308	0.003512	0.658973	0.751634	-0.028281
20307	-10.232100	1.136080	0.395385	-0.287085	0.464686	1.189850	0.952298	0.293820	-0.032537	-0.033352	-0.014515	-0.999338	-0.753381	0.657400	0.015595	0.656738	0.753402	-0.032861
20308	-10.328600	0.871129	0.477357	-0.282918	0.445172	1.195920	0.958421	0.288575	-0.028359	-0.045295	-0.010022	-0.998923	-0.754766	0.655412	0.027648	0.654429	0.755205	-0.037251
20309	-10.317800	0.785821	0.648644	-0.300528	0.432024	1.197970	0.962743	0.273983	-0.030174	-0.057266	-0.005373	-0.998344	-0.755983	0.653377	0.039848	0.652082	0.757013	-0.041478
20310	-10.261200	0.198487	0.575762	-0.304138	0.415603	1.189200	0.965601	0.264016	-0.031332	-0.068974	-0.000766	-0.997618	-0.757212	0.651108	0.051853	0.649517	0.758985	-0.045490
20311	-10.264400	-0.430498	0.497460	-0.266775	0.405823	1.169290	0.969783	0.261580	-0.026186	-0.080562	0.003841	-0.996742	-0.757864	0.649290	0.063757	0.647420	0.760531	-0.049397
20312	-10.155400	-0.670351	0.386380	-0.178708	0.379740	1.144860	0.981697	0.250723	-0.021555	-0.091701	0.008377	-0.995751	-0.758034	0.647859	0.075259	0.645737	0.761714	-0.053059
20313	-10.102800	-0.542017	0.566257	-0.124363	0.344175	1.104480	0.981454	0.242188	-0.018774	-0.102383	0.012997	-0.994660	-0.757556	0.647023	0.086432	0.644691	0.762360	-0.056398
20314	-10.075600	-0.507861	0.696917	-0.126559	0.321459	1.067120	0.991451	0.235581	-0.019259	-0.112541	0.017444	-0.993494	-0.757225	0.645894	0.097118	0.643386	0.763228	-0.059480
20315	-10.051600	-0.890326	0.536879	-0.139667	0.310498	1.015200	0.997505	0.233164	-0.016906	-0.122305	0.021724	-0.992255	-0.756718	0.644860	0.107391	0.642198	0.763992	-0.062431
20316	-10.122900	-1.318650	0.432990	-0.113551	0.302413	0.960520	0.999861	0.234768	-0.009610	-0.131517	0.025601	-0.990983	-0.756228	0.643763	0.116993	0.640954	0.764796	-0.065306
20317	-9.969180	-1.617110	0.377664	-0.055611	0.280963	0.900854	1.000706	0.218732	-0.018800	-0.140201	0.029349	-0.989688	-0.755155	0.643313	0.126053	0.640379	0.765041	-0.068030
20318	-9.543890	-1.925490	0.456887	0.020306	0.264452	0.828953	1.013162	0.209848	-0.021718	-0.148154	0.032658	-0.988425	-0.753830	0.643210	0.134243	0.640149	0.764993	-0.070675
20319	-9.094360	-2.159720	0.594657	0.099636	0.259409	0.770745	1.011702	0.209121	-0.016857	-0.155681	0.035748	-0.987160	-0.751750	0.644005	0.141877	0.640808	0.764185	-0.073386
20320	-9.001750	-2.371880	0.790331	0.175652	0.248701	0.703647	1.009840	0.200394	-0.012416	-0.162564	0.038385	-0.985951	-0.749504	0.645084	0.148693	0.641729	0.763147	-0.076097
20321	-9.039450	-2.508720	1.052130	0.212782	0.224878	0.631178	1.014132	0.194506	-0.011554	-0.168786	0.040854	-0.984806	-0.746847	0.646721	0.154831	0.643220	0.761632	-0.078645
20322	-9.062100	-2.760640	1.207440	0.223418	0.185784	0.539937	1.018780	0.194281	-0.019738	-0.174014	0.042937	-0.983807	-0.744483	0.648193	0.159972	0.644565	0.760265	-0.080828
20323	-8.927380	-3.185350	1.207200	0.227367	0.152771	0.420944	1.013712	0.184912	-0.025533	-0.178173	0.044617	-0.982987	-0.742021	0.650007	0.163999	0.646265	0.758618	-0.082707
20324	-8.902030	-3.715300	1.014500	0.271946	0.124594	0.290743	1.022499	0.183335	-0.023436	-0.181139	0.045566	-0.982401	-0.739739	0.651935	0.166634	0.648054	0.756905	-0.084384
20325	-8.963690	-3.995100	0.857663	0.347027	0.094923	0.165480	1.024843	0.186386	-0.022747	-0.183032	0.045953	-0.982032	-0.737255	0.654385	0.168031	0.650349	0.754764	-0.085895
